"trial.type","pas","trial","jitter.x","jitter.y","odd.digit","target.contrast","target.frames","cue","task","target.type","rt.subj","rt.obj","even.digit","obj.resp","subject"
"practice",1,0,-0.0826967790622,0.757042332512,5,0.1,9,0,"quadruplet","even",1.90216803551,82.208979845,6,"o","007"
"practice",4,1,-0.0152682178731,-0.995044910486,5,0.1,8,0,"quadruplet","odd",0.278485059738,0.564841032028,6,"o","007"
"practice",4,2,-0.0096801046845,0.522313538409,3,0.1,7,0,"quadruplet","even",0.222381830215,0.647177934647,2,"e","007"
"practice",4,3,-0.616821455099,0.103077757725,3,0.1,6,0,"quadruplet","odd",0.229099988937,0.581645965576,8,"o","007"
"practice",4,4,0.332965178256,-0.535727785553,7,0.1,5,0,"quadruplet","even",0.229254007339,0.619590044022,4,"e","007"
"practice",4,5,-0.137117535423,-0.454257826521,9,0.1,4,0,"quadruplet","odd",0.294492959976,0.235786914825,8,"o","007"
"practice",2,6,0.513255743491,0.024914683344,7,0.1,3,0,"quadruplet","even",1.24544596672,0.822510004044,4,"e","007"
"practice",2,7,0.384578709632,0.479440634193,9,0.1,2,0,"quadruplet","odd",0.286374092102,2.35855698586,6,"o","007"
"practice",1,8,-0.351187298387,0.450617711627,5,0.1,1,0,"quadruplet","even",0.229439973831,1.13354921341,4,"e","007"
"practice",4,9,-0.221943067576,-0.381236985722,3,0.1,9,0,"quadruplet","odd",0.222465991974,0.6407289505,2,"o","007"
"practice",4,10,-0.232794284231,0.749879058785,5,0.1,8,0,"quadruplet","even",0.261047124863,0.429483890533,8,"e","007"
"practice",4,11,0.378664925937,0.933879613419,3,0.1,7,0,"quadruplet","odd",0.286541938782,1.51879191399,4,"o","007"
"practice",4,12,0.155266223003,-0.166886942359,3,0.1,6,0,"quadruplet","even",0.261325836182,0.930352926254,6,"e","007"
"practice",4,13,0.393168944184,-0.410307194478,9,0.1,5,0,"quadruplet","odd",0.286707878113,0.325891017914,4,"o","007"
"practice",4,14,0.673420550851,0.109433010786,7,0.1,4,0,"quadruplet","even",0.213284015656,0.426455974579,8,"e","007"
"practice",3,15,0.3187559697,-0.559663520872,5,0.1,3,0,"quadruplet","odd",0.358455181122,1.41981196404,6,"e","007"
"practice",2,16,0.553115555781,-0.692754566168,7,0.1,2,0,"quadruplet","even",0.149397850037,2.53850603104,2,"o","007"
"practice",1,17,0.309364148328,-0.846309735013,9,0.1,1,0,"quadruplet","odd",0.197237968445,1.24911999702,2,"e","007"
"experiment",1,0,0.170750463239,-0.367103772049,7,0.1,1,0,"quadruplet","even",0.18222784996,1.28782105446,6,"e","007"
"experiment",4,1,-0.160682876248,0.189831860271,5,0.1,5,0,"quadruplet","odd",0.302492856979,1.15257000923,2,"o","007"
"experiment",2,2,0.957320683023,0.780503630893,9,0.1,2,0,"quadruplet","even",0.342550039291,1.09218907356,6,"o","007"
"experiment",4,3,0.670411760227,0.737224405359,3,0.1,6,0,"quadruplet","odd",0.254523992538,1.47183990479,2,"o","007"
"experiment",4,4,0.801989871775,-0.598177916602,9,0.1,4,0,"quadruplet","odd",0.165267944336,1.0943608284,6,"o","007"
"experiment",4,5,-0.845090905645,0.978885740039,9,0.1,3,0,"quadruplet","even",0.309356927872,0.642461061478,8,"e","007"
"experiment",1,6,-0.20073035131,0.758818807846,7,0.1,2,0,"quadruplet","odd",0.230359077454,1.67603302002,4,"e","007"
"experiment",1,7,0.646439386878,-0.477505776146,9,0.1,1,0,"quadruplet","even",0.260864019394,0.766841173172,6,"o","007"
"experiment",4,8,-0.678401368704,0.226838340955,7,0.1,3,0,"quadruplet","even",1.14947986603,0.72602391243,4,"e","007"
"experiment",1,9,0.777045380054,0.885922892998,3,0.1,4,0,"quadruplet","odd",0.262368917465,1.4871609211,2,"o","007"
"experiment",4,10,-0.917543405603,-0.342001723724,5,0.1,5,0,"quadruplet","odd",0.245040178299,0.982851028442,6,"o","007"
"experiment",4,11,0.839091050196,-0.844602562223,9,0.1,6,0,"quadruplet","even",0.253221988678,0.798084020615,4,"e","007"
"experiment",4,12,-0.352648450521,0.191008994081,3,0.1,5,12,"singles","odd",0.198374986649,0.749992132187,8,"o","007"
"experiment",4,13,0.892048244454,0.112051644208,3,0.1,6,12,"singles","even",0.293483972549,0.745327949524,8,"e","007"
"experiment",1,14,-0.0996764086089,-0.594447534307,3,0.1,1,12,"singles","odd",0.493492126465,0.983509063721,8,"e","007"
"experiment",4,15,-0.919370183309,-0.570160100653,3,0.1,4,12,"singles","even",0.221359968185,0.717522859573,8,"e","007"
"experiment",3,16,-0.115314773627,-0.982489221139,3,0.1,3,12,"singles","even",0.245293855667,1.53460502625,8,"e","007"
"experiment",2,17,0.767652873494,-0.432383327811,3,0.1,2,12,"singles","even",0.174530029297,1.55692005157,8,"o","007"
"experiment",2,18,0.516807904502,0.224467066012,3,0.1,3,12,"singles","odd",0.1970911026,1.13202881813,8,"e","007"
"experiment",1,19,-0.348866562122,0.455376925711,3,0.1,1,12,"singles","odd",0.245242118835,1.10628890991,8,"e","007"
"experiment",4,20,0.720145067634,0.929318513178,3,0.1,5,12,"singles","odd",0.197094917297,0.672927856445,8,"o","007"
"experiment",4,21,0.838978633449,0.574552152324,3,0.1,2,12,"singles","even",0.206348180771,1.14735603333,8,"e","007"
"experiment",4,22,-0.228606592584,-0.321311857929,3,0.1,4,12,"singles","even",0.222585916519,0.454831838608,8,"e","007"
"experiment",4,23,-0.384958270583,0.734412458188,3,0.1,6,12,"singles","odd",0.222405195236,0.413944005966,8,"o","007"
"experiment",1,24,-0.333361826471,-0.149597228498,3,0.1,2,24,"pairs","odd",0.245409965515,2.75329589844,8,"o","007"
"experiment",4,25,-0.728984872196,-0.360845036712,5,0.1,5,24,"pairs","odd",0.16650390625,0.549636125565,4,"o","007"
"experiment",4,26,0.307788315123,-0.999161590955,5,0.1,4,24,"pairs","even",1.22922492027,0.476243972778,8,"e","007"
"experiment",4,27,-0.543537898485,-0.811693080793,5,0.1,6,24,"pairs","even",0.230540037155,0.409409999847,4,"e","007"
"experiment",1,28,0.589679518452,-0.531237915032,3,0.1,1,24,"pairs","odd",0.285374164581,1.97431707382,8,"e","007"
"experiment",4,29,0.0451792094531,0.322722544771,5,0.1,3,24,"pairs","even",0.213418960571,1.52404999733,8,"e","007"
"experiment",4,30,0.147414822599,0.506289957869,3,0.1,6,24,"pairs","even",0.262391805649,0.301889896393,8,"e","007"
"experiment",1,31,0.267521136852,-0.458478435544,5,0.1,1,24,"pairs","odd",0.213268995285,1.17409682274,8,"e","007"
"experiment",2,32,-0.987992573574,-0.871800886899,3,0.1,3,24,"pairs","even",0.373434066772,1.69256210327,8,"e","007"
"experiment",4,33,-0.456630569624,0.872034648773,3,0.1,4,24,"pairs","odd",0.277127027512,0.572242021561,8,"o","007"
"experiment",4,34,-0.21413352099,0.965025565984,3,0.1,5,24,"pairs","even",0.222404956818,0.639053821564,8,"e","007"
"experiment",2,35,-0.852300412251,0.79572226045,5,0.1,2,24,"pairs","odd",0.333234071732,2.32242703438,8,"o","007"
"experiment",2,36,0.26165013754,0.754565734965,7,0.1,4,0,"quadruplet","even",0.470419168472,2.37866902351,6,"o","007"
"experiment",4,37,-0.809927135573,0.65707532655,3,0.1,6,0,"quadruplet","odd",0.173168182373,1.89246916771,4,"o","007"
"experiment",2,38,-0.553501622166,-0.808099500618,7,0.1,2,0,"quadruplet","odd",1.36544585228,1.47058105469,8,"e","007"
"experiment",4,39,-0.602957669822,0.69396135012,5,0.1,5,0,"quadruplet","even",0.214350223541,0.769742965698,8,"e","007"
"experiment",2,40,0.500293107206,-0.889387455515,9,0.1,1,0,"quadruplet","odd",0.526584148407,1.46701979637,2,"e","007"
"experiment",2,41,0.679965139527,-0.866817950987,7,0.1,3,0,"quadruplet","odd",0.525368928909,1.84266495705,8,"o","007"
"experiment",2,42,-0.251746242498,0.0668242057316,7,0.1,3,0,"quadruplet","even",1.24627804756,1.21228599548,2,"e","007"
"experiment",4,43,0.465006296933,0.719859995189,7,0.1,5,0,"quadruplet","even",0.253066778183,0.632464885712,6,"e","007"
"experiment",2,44,-0.140341471904,0.686845074272,9,0.1,1,0,"quadruplet","even",0.190305948257,3.43869686127,6,"o","007"
"experiment",4,45,-0.622149830612,0.631548926677,7,0.1,4,0,"quadruplet","even",0.214504003525,0.600932121277,4,"e","007"
"experiment",3,46,0.212771801939,-0.519237350678,5,0.1,2,0,"quadruplet","odd",0.781044006348,1.51029419899,8,"e","007"
"experiment",4,47,0.785502314368,-0.689754524806,9,0.1,6,0,"quadruplet","odd",0.254447937012,1.54693293571,4,"o","007"
"experiment",3,48,0.421936416441,0.337561563917,7,0.1,4,6,"singles","odd",0.590234994888,1.43990802765,4,"o","007"
"experiment",4,49,0.687923389907,-0.843911124001,7,0.1,6,6,"singles","even",0.230419158936,0.346841096878,4,"e","007"
"experiment",3,50,0.690931747666,-0.899191682331,7,0.1,3,6,"singles","even",1.23688197136,2.01573491096,4,"e","007"
"experiment",1,51,-0.631473221677,0.587706694066,7,0.1,1,6,"singles","odd",0.310481071472,2.56503200531,4,"e","007"
"experiment",1,52,0.623774546478,-0.20339199745,7,0.1,2,6,"singles","odd",0.293339967728,1.08306312561,4,"e","007"
"experiment",4,53,0.609778163527,0.552273190658,7,0.1,5,6,"singles","even",0.278324127197,0.605823993683,4,"e","007"
"experiment",4,54,-0.957093406124,0.177289527486,7,0.1,3,6,"singles","even",0.302538156509,0.440805196762,4,"e","007"
"experiment",4,55,-0.68174706258,-0.941508870799,7,0.1,6,6,"singles","odd",0.309330940247,0.83406996727,4,"o","007"
"experiment",4,56,-0.563626186687,0.227055346387,7,0.1,5,6,"singles","even",0.38902592659,0.345222949982,4,"e","007"
"experiment",4,57,0.303164543817,-0.985636589372,7,0.1,4,6,"singles","odd",0.518467903137,0.365604162216,4,"o","007"
"experiment",2,58,-0.653719043546,-0.229264764839,7,0.1,2,6,"singles","odd",1.08638906479,1.39778113365,4,"o","007"
"experiment",2,59,0.790569732809,0.322575733265,7,0.1,1,6,"singles","even",1.25310015678,1.63160920143,4,"o","007"
"experiment",4,60,-0.582513343851,-0.824863299645,9,0.1,6,17,"pairs","even",0.214520931244,0.410916090012,2,"e","007"
"experiment",4,61,0.112751747986,-0.66285799135,7,0.1,5,17,"pairs","odd",0.205276012421,0.492071151733,8,"o","007"
"experiment",1,62,-0.548477071841,-0.378423674114,7,0.1,4,17,"pairs","even",0.774235010147,2.09886217117,8,"o","007"
"experiment",2,63,0.023996146819,-0.522133446075,9,0.1,3,17,"pairs","odd",0.637449979782,2.0070438385,8,"o","007"
"experiment",1,64,-0.252830348069,0.182811738438,7,0.1,1,17,"pairs","odd",0.572960138321,1.18665909767,8,"e","007"
"experiment",1,65,0.24625432966,-0.295079736252,7,0.1,2,17,"pairs","odd",0.334395885468,1.28525304794,8,"e","007"
"experiment",4,66,-0.19008327729,-0.370684430379,9,0.1,4,17,"pairs","even",0.254502058029,0.603201150894,8,"e","007"
"experiment",1,67,-0.465159681652,0.538675300201,7,0.1,1,17,"pairs","even",0.245033979416,1.19190907478,2,"o","007"
"experiment",4,68,-0.870066952508,0.711001003914,7,0.1,5,17,"pairs","even",0.582397937775,2.80554294586,8,"e","007"
"experiment",1,69,0.0552530797248,0.14984817622,9,0.1,2,17,"pairs","odd",0.294404983521,0.885643959045,2,"e","007"
"experiment",4,70,-0.566473804094,-0.700579959135,7,0.1,6,17,"pairs","odd",0.278182983398,2.73888492584,2,"o","007"
"experiment",3,71,-0.0855967507672,0.232268232419,7,0.1,3,17,"pairs","even",0.39838385582,1.91918492317,2,"e","007"
"experiment",4,72,-0.949234667009,-0.747780692679,3,0.1,6,8,"singles","even",0.493365049362,0.765352010727,6,"e","007"
"experiment",3,73,0.0489168625697,-0.254770131758,3,0.1,2,8,"singles","even",0.24528002739,0.981651067734,6,"e","007"
"experiment",4,74,-0.786051232766,0.960946452429,3,0.1,5,8,"singles","odd",0.277367830276,0.389471054077,6,"o","007"
"experiment",2,75,0.614011296758,-0.882614296344,3,0.1,1,8,"singles","odd",0.822406053543,2.20120811462,6,"e","007"
"experiment",4,76,0.947581149505,0.310955832876,3,0.1,4,8,"singles","odd",0.252948045731,0.401098966599,6,"o","007"
"experiment",4,77,0.924406093419,0.887989320906,3,0.1,3,8,"singles","even",0.308969020844,0.356516838074,6,"e","007"
"experiment",4,78,0.114676533689,-0.149555525947,3,0.1,4,8,"singles","even",0.286398887634,0.409790992737,6,"e","007"
"experiment",3,79,-0.621828464183,0.389342210018,3,0.1,2,8,"singles","odd",0.252971887589,0.790591001511,6,"o","007"
"experiment",3,80,-0.29781330766,0.0193123754631,3,0.1,3,8,"singles","even",0.269322156906,0.698374986649,6,"e","007"
"experiment",4,81,-0.947094632353,0.422977844133,3,0.1,5,8,"singles","odd",0.254558086395,0.430820941925,6,"o","007"
"experiment",2,82,-0.697540735227,-0.392580344132,3,0.1,1,8,"singles","even",0.661104917526,1.47886109352,6,"e","007"
"experiment",4,83,-0.149216187106,-0.622772943924,3,0.1,6,8,"singles","odd",0.214401006699,0.598096132278,6,"o","007"
"experiment",1,84,-0.0292703914859,-0.602881167927,3,0.1,1,32,"pairs","even",0.221273899078,2.43376517296,6,"o","007"
"experiment",1,85,-0.839018672947,0.406506865199,3,0.1,2,32,"pairs","odd",0.230494976044,2.63230204582,6,"o","007"
"experiment",4,86,0.90115307079,0.679543417569,9,0.1,3,32,"pairs","even",0.253443002701,0.650941133499,6,"e","007"
"experiment",4,87,0.584349954536,-0.0292107494128,3,0.1,5,32,"pairs","odd",0.20553612709,0.528131008148,6,"o","007"
"experiment",4,88,0.751204596124,-0.516428308624,3,0.1,4,32,"pairs","even",0.70107793808,2.66626000404,6,"e","007"
"experiment",4,89,-0.492723839221,0.256585937264,9,0.1,6,32,"pairs","even",0.190364122391,0.517775058746,8,"e","007"
"experiment",2,90,0.938181229116,-0.121487459266,9,0.1,2,32,"pairs","odd",0.181512117386,1.3347659111,8,"o","007"
"experiment",4,91,0.313269210107,0.788106334751,3,0.1,5,32,"pairs","odd",0.220915079117,0.983297109604,8,"o","007"
"experiment",4,92,0.811959018115,-0.64285043339,9,0.1,4,32,"pairs","even",0.429092884064,1.4755718708,6,"e","007"
"experiment",4,93,0.271151251465,0.55844680914,9,0.1,6,32,"pairs","odd",0.214345932007,1.43034601212,6,"o","007"
"experiment",1,94,0.285587913645,-0.604850348379,9,0.1,1,32,"pairs","even",0.269525051117,0.885894060135,8,"e","007"
"experiment",1,95,-0.931763458214,0.0472644992127,9,0.1,3,32,"pairs","odd",0.198458909988,1.2706849575,6,"o","007"
"experiment",1,96,-0.971781245249,-0.345814174203,9,0.1,1,0,"quadruplet","odd",0.173271179199,3.47428321838,6,"e","007"
"experiment",4,97,0.228738455906,-0.0682330501433,5,0.1,4,0,"quadruplet","even",0.238406896591,0.649352073669,4,"e","007"
"experiment",1,98,0.624835631823,-0.140173267693,9,0.1,2,0,"quadruplet","odd",0.269523859024,1.17340612411,8,"o","007"
"experiment",4,99,-0.504169248138,0.910413018809,5,0.1,3,0,"quadruplet","even",0.278413057327,0.680540084839,2,"e","007"
"experiment",4,100,-0.573122895386,0.195839093999,3,0.1,5,0,"quadruplet","even",0.254497051239,0.338315963745,4,"e","007"
"experiment",4,101,0.366805820953,0.257294381124,7,0.1,6,0,"quadruplet","odd",0.222543001175,0.940999984741,4,"o","007"
"experiment",2,102,-0.0841003636436,-0.0296376220696,3,0.1,3,0,"quadruplet","odd",0.285322904587,1.78224015236,2,"o","007"
"experiment",4,103,-0.620178410816,-0.406958075609,5,0.1,4,0,"quadruplet","even",0.294676065445,0.436584949493,2,"e","007"
"experiment",1,104,-0.14726619659,0.00763667955314,7,0.1,1,0,"quadruplet","odd",0.30150103569,1.01833105087,2,"o","007"
"experiment",1,105,-0.464848591259,0.838187304986,9,0.1,2,0,"quadruplet","even",0.493165969849,1.11350393295,6,"o","007"
"experiment",4,106,-0.962779453178,-0.656842339378,5,0.1,5,0,"quadruplet","odd",0.294367074966,0.773151874542,2,"o","007"
"experiment",4,107,0.123333138547,-0.376974421455,5,0.1,6,0,"quadruplet","even",0.990463972092,1.1465420723,4,"e","007"
"experiment",1,108,-0.86516792852,-0.86194658928,7,0.1,1,2,"singles","even",0.206257104874,1.82899403572,2,"o","007"
"experiment",4,109,-0.612523981982,0.989550121772,7,0.1,3,2,"singles","odd",0.278252124786,1.96729898453,2,"o","007"
"experiment",4,110,-0.625345531776,0.348464359597,7,0.1,4,2,"singles","odd",0.222365856171,0.716327905655,2,"o","007"
"experiment",4,111,-0.731112451914,0.777971693886,7,0.1,6,2,"singles","even",0.262619972229,0.783137083054,2,"e","007"
"experiment",3,112,0.10422814934,0.552344024851,7,0.1,2,2,"singles","even",0.28532409668,1.43903398514,2,"e","007"
"experiment",4,113,-0.875848177866,0.931580256838,7,0.1,5,2,"singles","odd",0.149366140366,0.901492118835,2,"o","007"
"experiment",2,114,-0.50171835626,-0.435152355579,7,0.1,2,2,"singles","even",0.254458189011,1.72944903374,2,"e","007"
"experiment",3,115,-0.361450947572,0.0506314315533,7,0.1,3,2,"singles","odd",0.189026832581,1.48838090897,2,"o","007"
"experiment",4,116,0.330126840139,-0.358688135738,7,0.1,6,2,"singles","even",0.229258060455,0.46916103363,2,"e","007"
"experiment",4,117,0.895418164402,-0.733084082122,7,0.1,5,2,"singles","odd",0.182374954224,0.739823818207,2,"o","007"
"experiment",1,118,0.283758845034,0.807402013181,7,0.1,1,2,"singles","even",0.189404964447,0.632634162903,2,"e","007"
"experiment",4,119,0.199779403733,-0.689624005505,7,0.1,4,2,"singles","odd",0.870496034622,0.89825296402,2,"o","007"
"experiment",4,120,0.87472427661,-0.168232519495,3,0.1,5,0,"quadruplet","odd",0.214324951172,0.778769016266,2,"o","007"
"experiment",3,121,0.181541474052,0.933692180787,5,0.1,3,0,"quadruplet","odd",0.157292127609,0.962060928345,8,"o","007"
"experiment",4,122,0.742584521304,0.975105878476,7,0.1,4,0,"quadruplet","even",0.269097089767,0.467111110687,6,"e","007"
"experiment",1,123,0.632050560664,0.179097897708,9,0.1,1,0,"quadruplet","even",0.205327987671,1.50867486,2,"e","007"
"experiment",4,124,-0.0585383953732,0.761521823452,5,0.1,6,0,"quadruplet","odd",0.237343072891,0.548014879227,2,"o","007"
"experiment",2,125,0.627564276399,-0.769644142105,5,0.1,2,0,"quadruplet","odd",0.286493062973,0.985407114029,8,"o","007"
"experiment",4,126,0.608217100454,-0.660518174011,7,0.1,6,0,"quadruplet","even",1.26262187958,0.435617208481,6,"e","007"
"experiment",4,127,-0.294467925462,-0.655191333529,5,0.1,5,0,"quadruplet","even",0.82098698616,2.93509888649,2,"e","007"
"experiment",1,128,-0.302517434995,0.318708485618,9,0.1,2,0,"quadruplet","odd",1.42112708092,0.781767129898,2,"o","007"
"experiment",2,129,-0.731712280112,-0.941374714138,3,0.1,3,0,"quadruplet","even",0.269433021545,1.57195305824,4,"e","007"
"experiment",2,130,-0.0942524375795,-0.716834882066,9,0.1,1,0,"quadruplet","even",0.677365064621,1.12506890297,8,"o","007"
"experiment",4,131,0.861800897856,0.68893418902,3,0.1,4,0,"quadruplet","odd",0.278340101242,0.855193138123,6,"o","007"
"experiment",4,132,0.393173902662,-0.0209947445355,7,0.1,5,27,"pairs","odd",0.238440036774,0.866230010986,8,"o","007"
"experiment",1,133,-0.488946131246,-0.579221075051,7,0.1,3,27,"pairs","even",0.158389806747,4.97531294823,4,"o","007"
"experiment",4,134,-0.957143566881,0.791301620768,7,0.1,6,27,"pairs","even",0.238475084305,0.471277952194,8,"e","007"
"experiment",4,135,-0.13396719087,0.7624358092,7,0.1,4,27,"pairs","odd",0.229466915131,0.722321033478,8,"o","007"
"experiment",1,136,0.758896084692,-0.0227247864752,7,0.1,2,27,"pairs","even",0.357295036316,3.17710900307,8,"e","007"
"experiment",1,137,-0.140018589011,0.706113930505,7,0.1,1,27,"pairs","odd",0.197187185287,2.09840202332,4,"o","007"
"experiment",1,138,0.173728413805,-0.227028229377,5,0.1,1,27,"pairs","even",0.21334195137,2.29671812057,8,"o","007"
"experiment",4,139,-0.489651764515,-0.695329902793,7,0.1,5,27,"pairs","odd",0.230314970016,0.459346055984,8,"o","007"
"experiment",4,140,-0.396010462231,-0.542006467333,7,0.1,6,27,"pairs","odd",0.181375980377,0.492951869965,4,"o","007"
"experiment",4,141,0.40469319705,-0.507384240792,5,0.1,4,27,"pairs","odd",0.125203847885,1.48998999596,4,"o","007"
"experiment",2,142,0.765489819011,-0.425648050197,5,0.1,2,27,"pairs","even",0.166347026825,4.86159086227,4,"e","007"
"experiment",4,143,0.823062387187,0.159967281206,7,0.1,3,27,"pairs","even",0.213366985321,0.84712600708,8,"e","007"
"experiment",1,144,-0.354665995082,-0.984993829529,7,0.1,1,10,"singles","even",1.39837908745,1.12743782997,6,"o","007"
"experiment",4,145,-0.321953320133,-0.158329358583,7,0.1,6,10,"singles","even",0.221628904343,0.337682008743,6,"e","007"
"experiment",3,146,0.382498264545,-0.215848272515,7,0.1,3,10,"singles","odd",0.158394098282,0.648576974869,6,"o","007"
"experiment",4,147,-0.942429501549,0.945663317517,7,0.1,5,10,"singles","odd",0.165396928787,0.451846122742,6,"o","007"
"experiment",4,148,-0.539535761729,-0.0343992513509,7,0.1,2,10,"singles","odd",0.182286977768,0.843966007233,6,"o","007"
"experiment",4,149,0.800842682043,0.315943377689,7,0.1,4,10,"singles","even",0.229495048523,1.07168602943,6,"e","007"
"experiment",3,150,0.21068899828,0.928498712689,7,0.1,2,10,"singles","odd",0.382427930832,0.70009803772,6,"o","007"
"experiment",4,151,-0.581985105554,0.715130749326,7,0.1,4,10,"singles","even",0.213134050369,0.642470836639,6,"e","007"
"experiment",4,152,-0.651881940597,-0.312644527884,7,0.1,6,10,"singles","odd",0.173143863678,0.659878969193,6,"o","007"
"experiment",3,153,-0.407549385509,0.433273842508,7,0.1,3,10,"singles","odd",0.406378030777,1.20227313042,6,"o","007"
"experiment",2,154,0.918832237602,-0.149481386131,7,0.1,1,10,"singles","even",0.205348014832,1.67049098015,6,"e","007"
"experiment",4,155,0.486768378996,-0.905296849163,7,0.1,5,10,"singles","even",0.205201864243,0.69450211525,6,"e","007"
"experiment",3,156,0.486094389495,0.585374751972,3,0.1,6,25,"pairs","even",0.525313854218,1.08091115952,8,"e","007"
"experiment",2,157,-0.571741398992,-0.234201787586,7,0.1,1,25,"pairs","even",0.254362821579,1.48700499535,4,"e","007"
"experiment",2,158,0.53646134514,0.457920599927,7,0.1,4,25,"pairs","odd",0.373110771179,0.824890136719,8,"o","007"
"experiment",4,159,0.0577836586608,0.0947265936899,7,0.1,5,25,"pairs","odd",0.229108095169,0.520441055298,8,"o","007"
"experiment",4,160,-0.471249412302,-0.146443311502,7,0.1,3,25,"pairs","even",0.53332901001,0.944377183914,8,"e","007"
"experiment",3,161,0.840613356196,0.330759511606,7,0.1,2,25,"pairs","odd",0.166445016861,1.20988702774,4,"o","007"
"experiment",3,162,0.942281420698,0.528693466451,7,0.1,4,25,"pairs","odd",0.237241029739,0.81126999855,8,"o","007"
"experiment",1,163,0.489828313937,0.713593281812,7,0.1,1,25,"pairs","even",0.269248962402,1.63925409317,4,"e","007"
"experiment",4,164,-0.486781411551,-0.121727771391,3,0.1,3,25,"pairs","odd",0.957483053207,0.983938932419,4,"o","007"
"experiment",4,165,-0.374630416799,-0.681303194064,3,0.1,5,25,"pairs","even",0.300981044769,1.86775112152,8,"e","007"
"experiment",4,166,0.370434747353,-0.317424014072,3,0.1,6,25,"pairs","odd",0.189139842987,1.05261993408,8,"o","007"
"experiment",2,167,0.512710671349,0.536732009318,3,0.1,2,25,"pairs","even",0.341081142426,1.84255099297,4,"o","007"
"experiment",4,168,-0.26302407842,0.601896390782,3,0.1,5,0,"quadruplet","even",0.214470863342,2.45644497871,4,"e","007"
"experiment",4,169,-0.991319174581,-0.0936515167871,5,0.1,6,0,"quadruplet","even",0.188977003098,1.57125997543,6,"e","007"
"experiment",4,170,-0.704970189461,0.557737651083,5,0.1,4,0,"quadruplet","odd",0.165714025497,0.422603845596,6,"o","007"
"experiment",1,171,0.745187587986,-0.259636027899,7,0.1,1,0,"quadruplet","odd",0.261338949203,0.854355096817,6,"o","007"
"experiment",2,172,-0.821906992272,0.0839976333141,7,0.1,3,0,"quadruplet","odd",0.252955913544,2.12699985504,4,"e","007"
"experiment",4,173,-0.93097863637,-0.0231514644676,9,0.1,2,0,"quadruplet","odd",0.205227136612,1.40161991119,4,"o","007"
"experiment",2,174,-0.0349330175068,0.521108234637,7,0.1,2,0,"quadruplet","even",0.214615106583,1.66272807121,8,"o","007"
"experiment",1,175,-0.975963068006,0.9837460484,7,0.1,3,0,"quadruplet","even",0.165275096893,1.40497088432,4,"e","007"
"experiment",4,176,0.716030956768,0.283716477643,5,0.1,4,0,"quadruplet","even",0.221433877945,2.74117302895,8,"e","007"
"experiment",4,177,-0.266556075401,0.467970632392,3,0.1,5,0,"quadruplet","odd",0.221220016479,0.591813087463,4,"o","007"
"experiment",1,178,0.995599297352,-0.286826290507,5,0.1,1,0,"quadruplet","odd",0.150522947311,1.92264103889,8,"o","007"
"experiment",4,179,0.711981728911,0.295270814392,5,0.1,6,0,"quadruplet","even",0.278738021851,0.577619075775,4,"e","007"
"experiment",1,180,-0.973459433402,0.128423085904,5,0.1,1,13,"singles","odd",0.16639995575,2.78845405579,8,"o","007"
"experiment",1,181,-0.24783385904,0.841586676696,5,0.1,3,13,"singles","even",0.157344102859,0.865823030472,8,"e","007"
"experiment",4,182,-0.848841991127,0.415011769037,5,0.1,5,13,"singles","even",0.173384904861,0.489223003387,8,"e","007"
"experiment",4,183,-0.717815252416,-0.992387545677,5,0.1,4,13,"singles","odd",0.150527000427,0.523191928864,8,"o","007"
"experiment",1,184,-0.772840049114,-0.602716038877,5,0.1,2,13,"singles","even",0.150582075119,1.25141406059,8,"o","007"
"experiment",4,185,-0.763262100311,-0.83191155701,5,0.1,6,13,"singles","odd",1.35858201981,0.601686000824,8,"e","007"
"experiment",2,186,-0.797288818955,0.716240787823,5,0.1,2,13,"singles","odd",0.142525196075,4.12264800072,8,"o","007"
"experiment",4,187,0.894944222213,-0.337478586153,5,0.1,5,13,"singles","even",0.30949306488,0.657400131226,8,"e","007"
"experiment",1,188,0.293664957517,-0.213304590441,5,0.1,1,13,"singles","odd",0.31852388382,2.21466588974,8,"e","007"
"experiment",4,189,-0.359394579606,0.0663547315927,5,0.1,4,13,"singles","even",0.197378873825,0.513857841492,8,"e","007"
"experiment",4,190,0.540878718721,0.521869242245,5,0.1,6,13,"singles","even",0.510451078415,0.536244869232,8,"e","007"
"experiment",4,191,0.191255967727,-0.366055356152,5,0.1,3,13,"singles","odd",0.198371887207,0.336447954178,8,"o","007"
"experiment",4,192,-0.403341750756,0.966484450871,3,0.1,6,13,"pairs","odd",0.206479072571,1.33797502518,8,"o","007"
"experiment",2,193,-0.545696143917,0.424637166712,7,0.1,1,13,"pairs","odd",0.158295869827,2.32677602768,2,"o","007"
"experiment",4,194,-0.549100691794,0.0514065617291,7,0.1,3,13,"pairs","even",0.325316905975,2.26398491859,8,"e","007"
"experiment",4,195,-0.1797020408,0.583076859232,3,0.1,4,13,"pairs","even",0.190534830093,0.419681072235,2,"e","007"
"experiment",2,196,-0.316907280662,-0.533417430819,7,0.1,2,13,"pairs","odd",0.189100027084,1.78006696701,2,"e","007"
"experiment",4,197,-0.456331449773,0.264713027292,3,0.1,5,13,"pairs","even",0.206406116486,0.711843967438,8,"e","007"
"experiment",4,198,-0.0118020647692,-0.106352465856,7,0.1,5,13,"pairs","even",0.246604919434,0.44642996788,8,"e","007"
"experiment",4,199,0.350919420968,0.750091476361,3,0.1,6,13,"pairs","odd",0.205319166183,0.945599079132,2,"o","007"
"experiment",4,200,-0.811481735392,0.755894890878,3,0.1,3,13,"pairs","odd",0.213021993637,0.716877937317,2,"o","007"
"experiment",4,201,-0.0540729126255,-0.544956311615,3,0.1,4,13,"pairs","even",0.317107915878,0.670522928238,2,"e","007"
"experiment",1,202,-0.867032877301,0.397415112095,3,0.1,2,13,"pairs","even",0.166664123535,1.26535987854,2,"e","007"
"experiment",1,203,0.879270478757,0.555354202165,3,0.1,1,13,"pairs","odd",0.189116001129,0.689271211624,8,"o","007"
"experiment",1,204,-0.819093508998,0.952969670548,3,0.1,1,0,"quadruplet","odd",0.158559083939,1.19067692757,2,"o","007"
"experiment",2,205,0.899432988299,0.458253725223,3,0.1,3,0,"quadruplet","odd",0.181410074234,1.446570158,6,"o","007"
"experiment",2,206,0.258924259461,-0.946217893701,3,0.1,4,0,"quadruplet","even",0.197283983231,0.947106122971,8,"e","007"
"experiment",2,207,0.233899444008,0.0440835258499,3,0.1,2,0,"quadruplet","even",0.220982789993,1.60408306122,8,"o","007"
"experiment",4,208,-0.919892207086,0.749078994422,9,0.1,6,0,"quadruplet","odd",0.190527915955,0.680292844772,6,"o","007"
"experiment",4,209,-0.271554195146,0.0259105159087,5,0.1,5,0,"quadruplet","even",0.196964979172,0.394341945648,4,"e","007"
"experiment",1,210,0.722883824544,-0.692259940612,5,0.1,1,0,"quadruplet","even",0.142362117767,1.86025810242,4,"o","007"
"experiment",1,211,-0.922626406935,0.452175946615,7,0.1,2,0,"quadruplet","odd",0.214580059052,0.799578905106,4,"e","007"
"experiment",4,212,-0.344110166074,0.0541479511295,7,0.1,6,0,"quadruplet","odd",0.198656082153,0.786015033722,8,"o","007"
"experiment",4,213,-0.402698928536,-0.0821624152174,5,0.1,4,0,"quadruplet","even",0.590517997742,1.12946295738,8,"e","007"
"experiment",3,214,0.0108294369674,0.104056403652,3,0.1,3,0,"quadruplet","even",0.25447511673,1.59739613533,8,"e","007"
"experiment",4,215,-0.199925667839,0.623347943676,9,0.1,5,0,"quadruplet","odd",0.150612831116,0.965981006622,2,"o","007"
"experiment",1,216,-0.267896884612,0.0610617078868,5,0.1,1,4,"pairs","even",0.302562952042,0.904714822769,4,"o","007"
"experiment",1,217,0.787734703032,-0.62282870101,9,0.1,2,4,"pairs","even",0.173537969589,1.59866881371,2,"o","007"
"experiment",4,218,0.792121586067,-0.524402700374,5,0.1,6,4,"pairs","odd",0.27853012085,0.47767496109,4,"o","007"
"experiment",4,219,-0.0958159337085,0.661959630086,5,0.1,4,4,"pairs","odd",0.205233097076,0.422168970108,2,"o","007"
"experiment",4,220,-0.994781923809,0.364485608828,5,0.1,5,4,"pairs","even",0.230566978455,0.303836107254,2,"e","007"
"experiment",3,221,0.0791248682311,-0.233504475415,9,0.1,3,4,"pairs","odd",0.173485040665,1.17385697365,4,"o","007"
"experiment",1,222,0.493968573667,-0.264201344607,5,0.1,1,4,"pairs","odd",0.22102189064,1.6440141201,4,"e","007"
"experiment",4,223,-0.336962563116,-0.228947449378,9,0.1,6,4,"pairs","even",0.22110080719,0.431842088699,2,"e","007"
"experiment",4,224,0.101143215349,0.105232366296,9,0.1,5,4,"pairs","even",0.518656015396,0.595239162445,4,"e","007"
"experiment",4,225,-0.914142638115,0.907854934455,5,0.1,2,4,"pairs","even",0.190704107285,1.07511901855,2,"o","007"
"experiment",4,226,0.738010900373,0.588135006946,5,0.1,3,4,"pairs","odd",0.230484962463,1.43323016167,2,"o","007"
"experiment",4,227,-0.804649265724,-0.193965242783,5,0.1,4,4,"pairs","odd",0.214389801025,2.36369109154,4,"o","007"
"experiment",2,228,0.065418641504,-0.809064029633,5,0.1,1,9,"singles","odd",0.158556938171,2.0885219574,6,"e","007"
"experiment",2,229,0.331625969096,-0.771588096622,5,0.1,3,9,"singles","odd",0.166570186615,1.41955804825,6,"o","007"
"experiment",4,230,-0.69653066034,0.728306727957,5,0.1,4,9,"singles","even",0.214587926865,0.381808996201,6,"e","007"
"experiment",4,231,-0.366344001818,-0.849094228883,5,0.1,6,9,"singles","even",0.197605133057,0.3951151371,6,"e","007"
"experiment",1,232,0.762592986909,-0.757659982389,5,0.1,2,9,"singles","odd",0.206312894821,3.20177102089,6,"o","007"
"experiment",4,233,0.567014400574,0.983245746545,5,0.1,5,9,"singles","odd",0.157035827637,2.64730906487,6,"o","007"
"experiment",4,234,-0.0922215926512,0.43161809954,5,0.1,3,9,"singles","even",0.150480031967,0.686964988708,6,"e","007"
"experiment",1,235,-0.592194765485,-0.751885704399,5,0.1,1,9,"singles","even",0.172909021378,1.07801198959,6,"o","007"
"experiment",1,236,-0.830748128712,0.940047711823,5,0.1,2,9,"singles","even",0.173238992691,1.1219959259,6,"o","007"
"experiment",4,237,0.231617088449,0.795142838285,5,0.1,6,9,"singles","odd",0.21318602562,0.599654912949,6,"o","007"
"experiment",4,238,-0.725675696627,-0.937032214158,5,0.1,5,9,"singles","odd",0.197507143021,0.557844161987,6,"o","007"
"experiment",4,239,0.126494619693,0.42947927886,5,0.1,4,9,"singles","even",0.558625936508,0.74372792244,6,"e","007"
"experiment",2,240,-0.401090958238,0.343800381602,3,0.1,1,0,"quadruplet","even",0.190546989441,1.68295907974,6,"e","007"
"experiment",4,241,-0.684631412826,-0.244892041869,3,0.1,5,0,"quadruplet","even",0.189392089844,0.541394948959,8,"e","007"
"experiment",4,242,0.376287192737,-0.124455742264,9,0.1,4,0,"quadruplet","odd",0.205395936966,0.286366939545,6,"o","007"
"experiment",4,243,0.465990714244,-0.744271188243,5,0.1,3,0,"quadruplet","odd",0.206629037857,0.775166034698,4,"o","007"
"experiment",3,244,-0.385318563485,0.62300230678,5,0.1,6,0,"quadruplet","odd",0.477281093597,0.393518924713,6,"o","007"
"experiment",3,245,0.0511286016807,-0.185285648901,9,0.1,2,0,"quadruplet","odd",0.300940990448,1.90453386307,4,"e","007"
"experiment",2,246,0.744843648139,0.334222614755,5,0.1,2,0,"quadruplet","even",0.205363988876,0.759603977203,4,"o","007"
"experiment",4,247,0.124937084034,0.806286124878,9,0.1,5,0,"quadruplet","even",0.205039978027,0.510679960251,6,"e","007"
"experiment",4,248,-0.870215852705,-0.323667401803,5,0.1,4,0,"quadruplet","odd",0.174443006516,0.531602144241,2,"o","007"
"experiment",3,249,0.592347518465,-0.530811735865,3,0.1,3,0,"quadruplet","odd",0.781183958054,1.71840500832,2,"e","007"
"experiment",1,250,-0.193605328568,0.248678039043,3,0.1,1,0,"quadruplet","even",0.174572944641,1.62106204033,2,"o","007"
"experiment",4,251,0.914753936641,0.133111757929,3,0.1,6,0,"quadruplet","even",0.229067087173,0.526556968689,2,"e","007"
"experiment",4,252,-0.00655986120318,0.706482302137,9,0.1,6,20,"pairs","even",0.566363096237,1.28057909012,6,"e","007"
"experiment",4,253,-0.300661084468,0.0707861899417,9,0.1,4,20,"pairs","odd",0.317373037338,0.394947052002,6,"o","007"
"experiment",2,254,-0.687302458409,0.481827829874,3,0.1,1,20,"pairs","odd",0.198570966721,1.21057581902,4,"e","007"
"experiment",1,255,-0.549343062061,-0.0439501586189,3,0.1,2,20,"pairs","even",0.134533882141,0.948987007141,6,"o","007"
"experiment",4,256,-0.815531359271,0.87897341209,3,0.1,3,20,"pairs","odd",0.190541028976,0.926245927811,6,"o","007"
"experiment",4,257,0.573794536423,-0.627521189279,9,0.1,5,20,"pairs","even",1.17452812195,1.92687487602,4,"e","007"
"experiment",4,258,-0.412086791568,-0.721983754722,3,0.1,5,20,"pairs","odd",0.165117025375,1.84936189651,6,"o","007"
"experiment",3,259,-0.844967412633,0.350680100269,3,0.1,3,20,"pairs","even",0.317192077637,0.442119121552,6,"e","007"
"experiment",4,260,0.353753833583,0.0845483389261,9,0.1,4,20,"pairs","even",0.182595968246,0.7184009552,6,"e","007"
"experiment",2,261,0.386698130428,0.296063465358,9,0.1,2,20,"pairs","even",0.25337100029,1.02681803703,4,"e","007"
"experiment",4,262,0.0247489760763,0.835809016758,3,0.1,6,20,"pairs","odd",0.1731569767,0.684833049774,6,"o","007"
"experiment",2,263,0.446561267742,-0.145507692271,9,0.1,1,20,"pairs","odd",0.125286102295,1.61920309067,4,"o","007"
"experiment",4,264,-0.247888454945,-0.431198793678,9,0.1,4,0,"quadruplet","odd",0.14904999733,1.137362957,4,"o","007"
"experiment",3,265,0.006451518648,-0.455947652509,5,0.1,3,0,"quadruplet","even",0.213141918182,1.37563419342,6,"e","007"
"experiment",1,266,0.594287673573,-0.398520842794,7,0.1,1,0,"quadruplet","even",0.158576965332,1.97853207588,8,"o","007"
"experiment",4,267,-0.647150322122,0.418827458515,9,0.1,6,0,"quadruplet","odd",0.157164812088,0.66085100174,8,"o","007"
"experiment",4,268,-0.0807649959219,0.385320654816,3,0.1,5,0,"quadruplet","odd",0.198666810989,0.791480064392,6,"o","007"
"experiment",1,269,-0.228172285899,-0.524653728848,7,0.1,2,0,"quadruplet","even",0.222455024719,3.70641112328,4,"e","007"
"experiment",4,270,0.691005304908,-0.484337677733,5,0.1,5,0,"quadruplet","even",0.181104898453,0.494689941406,2,"e","007"
"experiment",4,271,-0.277416178856,-0.691921944967,3,0.1,4,0,"quadruplet","odd",0.149016857147,0.760869979858,4,"o","007"
"experiment",4,272,0.71442922253,-0.775008306762,9,0.1,2,0,"quadruplet","even",0.205466985703,1.15314292908,2,"e","007"
"experiment",1,273,-0.200954939978,-0.602147047268,9,0.1,1,0,"quadruplet","odd",0.156956911087,0.9855260849,6,"o","007"
"experiment",4,274,0.398604206798,-0.993751414276,9,0.1,6,0,"quadruplet","odd",0.140822887421,0.742490053177,8,"o","007"
"experiment",4,275,-0.685078892983,0.695193971492,9,0.1,3,0,"quadruplet","even",0.637012958527,0.46946310997,4,"e","007"
"experiment",4,276,-0.889371011377,-0.360362877277,3,0.1,6,4,"singles","odd",0.166499137878,0.505738019943,4,"o","007"
"experiment",4,277,-0.569408167316,-0.658045970428,3,0.1,3,4,"singles","even",0.230455875397,2.20515704155,4,"e","007"
"experiment",4,278,-0.0822553669542,0.91895497952,3,0.1,4,4,"singles","even",0.32537984848,0.339902877808,4,"e","007"
"experiment",4,279,0.710509734827,-0.191932166886,3,0.1,5,4,"singles","odd",0.173929929733,0.423742055893,4,"o","007"
"experiment",1,280,0.636390735423,-0.265050269003,3,0.1,1,4,"singles","even",0.574536085129,1.55791306496,4,"o","007"
"experiment",3,281,-0.327917285361,-0.65909899148,3,0.1,2,4,"singles","odd",0.269119977951,1.95908284187,4,"o","007"
"experiment",4,282,0.375870553761,-0.597665190892,3,0.1,6,4,"singles","even",0.206530094147,0.338707923889,4,"e","007"
"experiment",4,283,0.0503181626532,-0.211556275214,3,0.1,4,4,"singles","odd",0.157016992569,0.763255119324,4,"o","007"
"experiment",2,284,-0.906044265224,-0.0359097185681,3,0.1,1,4,"singles","odd",0.606476068497,1.94322609901,4,"o","007"
"experiment",3,285,-0.565580197408,-0.947557523102,3,0.1,3,4,"singles","even",0.733152866364,1.70980191231,4,"e","007"
"experiment",2,286,0.410836590171,0.394083751145,3,0.1,2,4,"singles","even",0.262565851212,1.5700340271,4,"o","007"
"experiment",4,287,0.526090152969,0.303280407553,3,0.1,5,4,"singles","odd",0.190670967102,0.659608125687,4,"o","007"
"experiment",4,288,-0.339957272072,0.872325370183,7,0.1,6,21,"pairs","even",0.830559968948,0.985501050949,6,"e","007"
"experiment",4,289,-0.806978423381,0.147607100212,7,0.1,5,21,"pairs","odd",1.118445158,4.58152198792,6,"o","007"
"experiment",1,290,-0.0702403864877,-0.202499656398,7,0.1,1,21,"pairs","odd",0.438533067703,1.18863606453,6,"e","007"
"experiment",4,291,-0.757932339712,-0.0322261866782,5,0.1,4,21,"pairs","even",0.213768005371,0.424354076385,4,"e","007"
"experiment",2,292,-0.314571356591,-0.591751333127,7,0.1,3,21,"pairs","even",0.277209043503,1.03527402878,4,"o","007"
"experiment",2,293,-0.478334995634,-0.255822057437,5,0.1,2,21,"pairs","odd",0.181185007095,0.942716121674,4,"e","007"
"experiment",4,294,-0.0316208341463,0.765707204826,7,0.1,5,21,"pairs","even",0.197079181671,0.376081943512,6,"e","007"
"experiment",1,295,0.884258255637,0.851818874921,7,0.1,2,21,"pairs","odd",0.150574207306,0.764745950699,4,"o","007"
"experiment",2,296,0.791959331407,0.67853968882,5,0.1,4,21,"pairs","even",0.31721997261,0.860873937607,4,"e","007"
"experiment",2,297,-0.93110918456,0.949899626564,5,0.1,3,21,"pairs","odd",0.565468072891,1.22087717056,6,"o","007"
"experiment",4,298,0.714346640732,0.215482166276,5,0.1,6,21,"pairs","even",0.214393138885,0.438644170761,6,"e","007"
"experiment",2,299,-0.422400954532,-0.791235430932,5,0.1,1,21,"pairs","odd",0.205142021179,1.23326611519,6,"o","007"
"experiment",1,300,-0.432112466447,-0.188247894371,3,0.1,2,0,"quadruplet","odd",0.126516819,1.02503991127,8,"o","007"
"experiment",4,301,-0.815126561256,0.0863577832743,7,0.1,6,0,"quadruplet","odd",0.245131969452,0.643559932709,6,"o","007"
"experiment",3,302,-0.852366830836,-0.0659451142158,9,0.1,3,0,"quadruplet","even",0.565225124359,0.582292079926,6,"e","007"
"experiment",2,303,0.545506037708,-0.977640245215,7,0.1,1,0,"quadruplet","even",0.118448972702,2.6258649826,4,"e","007"
"experiment",3,304,-0.915720499605,-0.108184350897,5,0.1,4,0,"quadruplet","odd",0.397257089615,0.704931020737,6,"o","007"
"experiment",4,305,-0.511124981853,0.364380841788,3,0.1,5,0,"quadruplet","even",0.276915788651,1.16535615921,4,"e","007"
"experiment",4,306,-0.801905421746,-0.864239000248,7,0.1,2,0,"quadruplet","even",0.82094502449,1.12560796738,8,"e","007"
"experiment",3,307,0.172372079037,-0.401686058114,9,0.1,1,0,"quadruplet","odd",2.06897997856,2.72843599319,2,"e","007"
"experiment",4,308,-0.412243261606,-0.553383741638,3,0.1,6,0,"quadruplet","odd",0.190644025803,0.532500982285,4,"o","007"
"experiment",4,309,-0.981153528538,0.236842836164,9,0.1,5,0,"quadruplet","even",0.229063034058,1.35911798477,4,"e","007"
"experiment",3,310,0.285610497703,-0.289816630993,3,0.1,3,0,"quadruplet","odd",0.262548923492,1.34377598763,6,"o","007"
"experiment",4,311,-0.331342350845,-0.857516137892,7,0.1,4,0,"quadruplet","even",0.198593139648,0.475314855576,2,"e","007"
"experiment",4,312,0.626705067114,-0.527388990136,9,0.1,5,3,"singles","even",0.166625022888,0.478416919708,2,"e","007"
"experiment",4,313,0.999971312315,-0.8703380703,9,0.1,6,3,"singles","even",0.1745429039,0.300193071365,2,"e","007"
"experiment",2,314,0.968689790718,0.509955198258,9,0.1,1,3,"singles","odd",0.3905210495,1.56690597534,2,"o","007"
"experiment",2,315,-0.841260655198,-0.531370756235,9,0.1,2,3,"singles","odd",0.277262926102,1.42640805244,2,"e","007"
"experiment",3,316,0.85546921772,-0.223722535433,9,0.1,4,3,"singles","odd",0.214478969574,1.78781509399,2,"o","007"
"experiment",4,317,-0.500924719121,-0.507475591907,9,0.1,3,3,"singles","odd",1.16648983955,0.721175909042,2,"e","007"
"experiment",4,318,-0.568350373096,0.366344394996,9,0.1,4,3,"singles","even",0.150630950928,0.954406023026,2,"e","007"
"experiment",3,319,-0.399581370657,-0.739812661174,9,0.1,2,3,"singles","even",0.166596889496,0.939576148987,2,"e","007"
"experiment",4,320,-0.523880540794,-0.532977788172,9,0.1,5,3,"singles","even",0.382616996765,5.00141501427,2,"e","007"
"experiment",4,321,-0.898575702614,0.00249654973747,9,0.1,6,3,"singles","odd",0.174647092819,0.237932920456,2,"o","007"
"experiment",2,322,0.354470440812,0.505253251943,9,0.1,1,3,"singles","even",0.157017946243,1.27506113052,2,"o","007"
"experiment",3,323,-0.116293519844,-0.283554506392,9,0.1,3,3,"singles","odd",0.797477960587,0.615172147751,2,"o","007"
"experiment",4,324,0.169277376608,0.189893896202,3,0.1,5,19,"pairs","odd",0.142556905746,0.759970903397,6,"o","007"
"experiment",4,325,0.0215989304073,0.198052567608,3,0.1,4,19,"pairs","odd",0.174497127533,0.338497877121,4,"o","007"
"experiment",4,326,-0.695825051263,-0.406503621537,7,0.1,6,19,"pairs","even",0.189449071884,0.305479049683,4,"e","007"
"experiment",2,327,0.00577927357489,-0.886890518139,3,0.1,1,19,"pairs","even",0.646762132645,1.0213830471,4,"o","007"
"experiment",2,328,-0.515310011756,-0.25582770597,7,0.1,3,19,"pairs","even",0.229266166687,0.816118955612,4,"e","007"
"experiment",1,329,0.231598041471,0.728312726402,3,0.1,2,19,"pairs","even",0.142474889755,1.35547304153,4,"e","007"
"experiment",2,330,0.486977333147,-0.481195838763,7,0.1,2,19,"pairs","odd",0.236863136292,1.73993802071,4,"o","007"
"experiment",2,331,-0.737866402283,-0.50173186806,3,0.1,4,19,"pairs","odd",0.222651958466,1.53156995773,4,"e","007"
"experiment",4,332,-0.817777661002,0.393246355744,7,0.1,5,19,"pairs","even",0.829231977463,0.612595796585,4,"e","007"
"experiment",1,333,-0.827633285578,0.859646340473,7,0.1,1,19,"pairs","even",0.269361019135,0.865094900131,4,"o","007"
"experiment",2,334,-0.0577627689371,-0.800886113142,3,0.1,3,19,"pairs","odd",0.189368963242,1.85136008263,6,"o","007"
"experiment",4,335,-0.989735594382,-0.860659597526,3,0.1,6,19,"pairs","odd",0.181118011475,1.04163789749,6,"o","007"
"experiment",4,336,0.454865096157,-0.685583397264,3,0.1,4,0,"quadruplet","even",0.198529958725,0.551901817322,2,"e","007"
"experiment",1,337,0.420624851986,0.794727228499,9,0.1,1,0,"quadruplet","odd",0.157285928726,1.94113898277,8,"e","007"
"experiment",4,338,-0.290757141336,-0.740971174605,5,0.1,5,0,"quadruplet","even",0.189367055893,1.20335388184,2,"e","007"
"experiment",4,339,-0.501554411459,-0.873680645339,3,0.1,6,0,"quadruplet","odd",0.230792999268,0.26865696907,4,"o","007"
"experiment",2,340,-0.464323080334,0.702035450714,3,0.1,3,0,"quadruplet","odd",0.134394168854,1.7783229351,6,"o","007"
"experiment",1,341,-0.47521846226,0.252409178832,7,0.1,2,0,"quadruplet","even",0.125231027603,0.928575992584,8,"e","007"
"experiment",2,342,0.112931190771,-0.605884826777,5,0.1,2,0,"quadruplet","even",0.14947104454,2.13974094391,6,"e","007"
"experiment",4,343,0.995349047648,-0.330971849833,9,0.1,4,0,"quadruplet","odd",0.206519126892,0.282060146332,4,"o","007"
"experiment",2,344,0.376250087418,0.581371233896,9,0.1,1,0,"quadruplet","even",0.14081287384,3.13147187233,6,"e","007"
"experiment",3,345,-0.526933250427,-0.56290067759,5,0.1,3,0,"quadruplet","even",0.182514190674,1.51294517517,8,"e","007"
"experiment",4,346,0.889192732309,0.365995925383,5,0.1,5,0,"quadruplet","odd",0.214686155319,0.424074888229,4,"o","007"
"experiment",4,347,-0.0546987918964,-0.610574339548,5,0.1,6,0,"quadruplet","odd",0.190454006195,0.878279924393,2,"o","007"
"experiment",4,348,-0.742799402936,0.369968689303,5,0.1,5,1,"singles","even",0.958526849747,0.646330118179,2,"o","007"
"experiment",1,349,0.620345487595,-0.510351287789,5,0.1,2,1,"singles","odd",0.16512298584,1.52854013443,2,"o","007"
"experiment",4,350,-0.581125351649,-0.805735044665,5,0.1,6,1,"singles","even",0.182644844055,0.314980983734,2,"e","007"
"experiment",4,351,0.318665135884,-0.715930837699,5,0.1,4,1,"singles","odd",0.190534114838,0.244001865387,2,"o","007"
"experiment",4,352,-0.441355024527,0.890209178733,5,0.1,3,1,"singles","odd",0.197421073914,0.283865213394,2,"o","007"
"experiment",2,353,-0.254913802641,-0.0221796124442,5,0.1,1,1,"singles","odd",0.30118894577,1.23750185966,2,"o","007"
"experiment",4,354,0.166573979225,0.297834066169,5,0.1,4,1,"singles","even",0.230641841888,0.844701051712,2,"e","007"
"experiment",4,355,0.228514675067,-0.805272517976,5,0.1,6,1,"singles","even",0.198605060577,0.281705856323,2,"e","007"
"experiment",4,356,0.516392186004,0.769095982135,5,0.1,3,1,"singles","even",0.230744838715,0.28636598587,2,"e","007"
"experiment",1,357,0.588773393407,-0.0688434494121,5,0.1,1,1,"singles","even",0.157030105591,1.09626293182,2,"o","007"
"experiment",4,358,0.304787131035,-0.682251895672,5,0.1,5,1,"singles","odd",0.213443994522,0.39403295517,2,"o","007"
"experiment",1,359,0.969272314577,-0.3548632216,5,0.1,2,1,"singles","odd",0.158559083939,1.15074896812,2,"e","007"
"experiment",1,360,0.293841891817,0.152449109792,3,0.1,1,0,"quadruplet","odd",0.174643039703,1.28901910782,4,"o","007"
"experiment",4,361,-0.267929164645,-0.361605070183,5,0.1,6,0,"quadruplet","even",0.21450304985,0.575756072998,8,"e","007"
"experiment",4,362,-0.563743442254,-0.398741627291,3,0.1,3,0,"quadruplet","odd",0.173501968384,0.433928966522,6,"o","007"
"experiment",3,363,-0.184761414714,-0.258612831972,5,0.1,2,0,"quadruplet","even",0.469322919846,1.44220304489,4,"e","007"
"experiment",4,364,0.604773142963,-0.769976779859,9,0.1,4,0,"quadruplet","odd",0.214678049088,0.300056219101,2,"o","007"
"experiment",4,365,-0.160356910311,-0.261135086186,7,0.1,5,0,"quadruplet","odd",0.222442865372,0.244802951813,4,"o","007"
"experiment",2,366,0.494156588722,-0.939667220995,5,0.1,1,0,"quadruplet","even",0.16511297226,0.857157945633,6,"e","007"
"experiment",1,367,-0.00492937244662,0.215528856275,3,0.1,3,0,"quadruplet","even",0.181015968323,0.85044002533,2,"o","007"
"experiment",4,368,-0.224072185059,-0.618124902756,9,0.1,6,0,"quadruplet","odd",0.174550056458,0.532857894897,8,"o","007"
"experiment",1,369,0.399177413125,0.350226525747,9,0.1,2,0,"quadruplet","odd",0.182516098022,1.60214877129,6,"e","007"
"experiment",4,370,-0.470796376634,-0.0662543478151,9,0.1,4,0,"quadruplet","even",0.196948051453,0.764087915421,8,"e","007"
"experiment",4,371,0.808331928387,0.281767143136,3,0.1,5,0,"quadruplet","even",0.190667867661,0.304023981094,6,"e","007"
"experiment",1,372,0.354493762467,0.193993307921,9,0.1,2,11,"pairs","even",0.814629077911,1.86620211601,6,"o","007"
"experiment",4,373,0.220888854146,0.701116828417,9,0.1,5,11,"pairs","odd",0.150681972504,0.512128829956,6,"o","007"
"experiment",3,374,-0.00605574592939,-0.180690992566,9,0.1,4,11,"pairs","odd",0.157054185867,0.700525999069,6,"o","007"
"experiment",4,375,-0.146484649287,-0.90039404048,7,0.1,6,11,"pairs","even",0.222503900528,0.321360111237,6,"e","007"
"experiment",2,376,-0.806930924381,0.898317334201,9,0.1,1,11,"pairs","even",0.221292972565,1.79402709007,6,"o","007"
"experiment",2,377,-0.0790070936486,0.318909500424,9,0.1,3,11,"pairs","even",2.00500893593,2.68727993965,6,"o","007"
"experiment",4,378,0.126281356933,0.268763371828,9,0.1,6,11,"pairs","odd",0.182500839233,0.745366096497,6,"o","007"
"experiment",1,379,0.79773367591,-0.386244781859,7,0.1,2,11,"pairs","odd",0.165144205093,1.11371803284,6,"e","007"
"experiment",4,380,0.987657582295,-0.230272371627,7,0.1,5,11,"pairs","odd",0.533416986465,2.35714697838,2,"o","007"
"experiment",1,381,-0.627901235545,0.712200304276,7,0.1,1,11,"pairs","odd",0.69313788414,0.832092046738,6,"e","007"
"experiment",4,382,-0.389770128472,-0.870452250177,9,0.1,4,11,"pairs","even",0.205257892609,0.439599990845,6,"e","007"
"experiment",3,383,-0.221699421338,0.494257324846,7,0.1,3,11,"pairs","even",0.23059296608,1.11036109924,6,"e","007"
"experiment",4,384,0.330925944767,0.0197644461921,9,0.1,5,7,"singles","odd",0.190696954727,0.344375133514,4,"o","007"
"experiment",1,385,-0.39151354469,0.908297207871,9,0.1,3,7,"singles","odd",0.142537117004,1.17890882492,4,"o","007"
"experiment",2,386,-0.428623170228,-0.399513526258,9,0.1,2,7,"singles","even",0.510571956635,0.784452915192,4,"e","007"
"experiment",2,387,-0.170125652922,0.546120631011,9,0.1,1,7,"singles","even",0.134531021118,1.06786990166,4,"o","007"
"experiment",4,388,0.596991712314,-0.377700087255,9,0.1,4,7,"singles","even",0.206601858139,0.855715990067,4,"e","007"
"experiment",4,389,0.812414816555,0.211537707939,9,0.1,6,7,"singles","odd",0.198505163193,0.460980892181,4,"o","007"
"experiment",1,390,0.196127463352,0.338746212502,9,0.1,2,7,"singles","even",0.133197784424,2.71180891991,4,"e","007"
"experiment",4,391,-0.830387107238,0.170727900414,9,0.1,6,7,"singles","odd",0.174420118332,2.85822606087,4,"o","007"
"experiment",4,392,-0.786408858138,0.81849141948,9,0.1,5,7,"singles","odd",0.181121110916,3.43775200844,4,"o","007"
"experiment",1,393,0.0949453386664,-0.537405951397,9,0.1,3,7,"singles","even",0.158522129059,0.81685090065,4,"e","007"
"experiment",4,394,0.0852798979423,-0.0227314678633,9,0.1,4,7,"singles","odd",0.525149106979,1.21244382858,4,"o","007"
"experiment",2,395,0.675447539591,0.46062245204,9,0.1,1,7,"singles","even",0.149211168289,1.47307300568,4,"o","007"
"experiment",2,396,0.0928100859254,-0.0239434038536,7,0.1,3,31,"pairs","even",0.110588788986,2.36794090271,8,"o","007"
"experiment",3,397,-0.155583706907,-0.0906091637293,7,0.1,4,31,"pairs","odd",0.214514970779,1.33486318588,8,"o","007"
"experiment",2,398,0.714267506613,0.516116639577,3,0.1,1,31,"pairs","odd",0.27855014801,1.36599588394,8,"e","007"
"experiment",4,399,-0.48549572174,-0.159668723601,3,0.1,5,31,"pairs","even",0.197240114212,0.583817958832,8,"e","007"
"experiment",4,400,-0.989760404246,-0.0666511894042,3,0.1,2,31,"pairs","odd",0.214648008347,0.470058917999,8,"o","007"
"experiment",4,401,-0.577352390054,-0.161291100387,3,0.1,6,31,"pairs","odd",0.189043998718,0.2821829319,8,"o","007"
"experiment",4,402,-0.755394277363,-0.145829333789,7,0.1,6,31,"pairs","even",0.326568126678,0.687378883362,8,"e","007"
"experiment",4,403,0.839879924603,-0.523062323784,7,0.1,4,31,"pairs","even",0.206561088562,0.613270998001,8,"e","007"
"experiment",1,404,0.238735811056,0.890624192604,7,0.1,2,31,"pairs","odd",0.150520086288,1.21934986115,6,"o","007"
"experiment",1,405,0.0579541302903,-0.554413293026,3,0.1,1,31,"pairs","even",0.189489841461,1.26269984245,8,"e","007"
"experiment",4,406,0.843599164413,0.133380556605,7,0.1,5,31,"pairs","even",6.4370880127,1.44380283356,6,"e","007"
"experiment",3,407,-0.682143715873,0.304403244111,7,0.1,3,31,"pairs","odd",0.16663813591,1.56637692451,8,"o","007"
"experiment",1,408,-0.580714069462,-0.0790772640378,9,0.1,2,0,"quadruplet","odd",0.206690073013,0.684846878052,8,"e","007"
"experiment",4,409,0.722087894045,-0.129086638606,9,0.1,5,0,"quadruplet","even",0.205121040344,1.43352603912,6,"e","007"
"experiment",2,410,0.392271783548,0.125113171572,3,0.1,1,0,"quadruplet","even",0.156800985336,0.74330997467,4,"e","007"
"experiment",4,411,0.424434406657,0.266274106797,7,0.1,4,0,"quadruplet","odd",0.174626111984,5.33225297928,4,"o","007"
"experiment",4,412,-0.136160088182,-0.801783487061,7,0.1,6,0,"quadruplet","even",0.198539018631,0.251169919968,6,"e","007"
"experiment",4,413,0.0226522303701,-0.259671066211,3,0.1,3,0,"quadruplet","odd",0.173118829727,0.516416072845,2,"o","007"
"experiment",3,414,-0.0437824691356,-0.777007802374,7,0.1,3,0,"quadruplet","odd",0.164856910706,0.860071897507,8,"o","007"
"experiment",4,415,0.700490975172,-0.809354295845,7,0.1,4,0,"quadruplet","even",0.182527065277,0.500141143799,8,"e","007"
"experiment",2,416,0.500039579623,-0.758743901522,3,0.1,2,0,"quadruplet","even",0.173386096954,1.16558885574,4,"e","007"
"experiment",4,417,-0.0471796455028,-0.484887440758,9,0.1,5,0,"quadruplet","even",0.205419063568,1.05596899986,8,"e","007"
"experiment",2,418,-0.102059094106,0.983703015615,7,0.1,1,0,"quadruplet","odd",0.181015968323,1.80562281609,6,"o","007"
"experiment",4,419,-0.555358670247,0.908316988322,7,0.1,6,0,"quadruplet","odd",0.132947921753,0.557331085205,8,"o","007"
"experiment",4,420,-0.260868730421,-0.264639482021,9,0.1,5,15,"singles","even",0.20655298233,0.398651123047,8,"e","007"
"experiment",4,421,0.489551296872,-0.781795688787,9,0.1,6,15,"singles","even",0.325065135956,1.44868898392,8,"e","007"
"experiment",2,422,-0.315495852862,0.446763699415,9,0.1,3,15,"singles","odd",0.158466100693,1.37574219704,8,"o","007"
"experiment",1,423,0.557405595879,0.99897316648,9,0.1,1,15,"singles","odd",0.16649889946,0.501373052597,8,"e","007"
"experiment",4,424,-0.453314134372,0.629410204032,9,0.1,4,15,"singles","odd",0.206656932831,0.371191978455,8,"o","007"
"experiment",1,425,0.392728638433,-0.951983572152,9,0.1,2,15,"singles","even",0.125349998474,1.14797592163,8,"e","007"
"experiment",2,426,-0.386435162553,-0.841559578245,9,0.1,1,15,"singles","odd",0.165225028992,1.36731290817,8,"e","007"
"experiment",4,427,-0.0508163854906,0.0762946216665,9,0.1,4,15,"singles","even",0.221104860306,0.966320037842,8,"e","007"
"experiment",4,428,-0.646790010169,0.16403417064,9,0.1,6,15,"singles","even",0.174483060837,0.370378017426,8,"e","007"
"experiment",4,429,0.204256702479,0.381388975295,9,0.1,5,15,"singles","odd",0.166589975357,0.289927005768,8,"o","007"
"experiment",1,430,-0.687301829364,-0.769152478616,9,0.1,2,15,"singles","odd",0.133408069611,1.22542619705,8,"e","007"
"experiment",4,431,0.139653850339,-0.285868703757,9,0.1,3,15,"singles","even",0.398649930954,2.21401810646,8,"e","007"
"experiment",4,432,0.0698161251282,0.0977861161627,9,0.1,6,0,"quadruplet","odd",0.20655298233,0.233842849731,4,"o","007"
"experiment",2,433,0.538128427418,-0.468649234771,5,0.1,3,0,"quadruplet","odd",0.222481966019,0.524525880814,2,"e","007"
"experiment",4,434,-0.387032885465,-0.0847533048447,3,0.1,5,0,"quadruplet","even",0.189502954483,0.741539955139,8,"e","007"
"experiment",1,435,0.246214883288,0.990211164646,5,0.1,1,0,"quadruplet","even",0.180899858475,0.578423976898,6,"o","007"
"experiment",4,436,0.615028433552,0.0697751901289,3,0.1,4,0,"quadruplet","odd",0.574580907822,0.689989805222,8,"o","007"
"experiment",2,437,-0.754506404464,0.950579829613,5,0.1,2,0,"quadruplet","odd",0.158647060394,0.952234983444,4,"o","007"
"experiment",4,438,0.659822902506,-0.454088277936,5,0.1,3,0,"quadruplet","even",0.189395904541,0.575357913971,8,"e","007"
"experiment",4,439,0.94033628129,-0.81742313481,5,0.1,6,0,"quadruplet","even",0.181281805038,0.678442955017,2,"e","007"
"experiment",3,440,0.531864426554,-0.838881702114,9,0.1,4,0,"quadruplet","even",0.197403907776,1.03062391281,8,"e","007"
"experiment",1,441,-0.884518315462,0.808036744165,7,0.1,1,0,"quadruplet","even",0.2134308815,0.901376962662,8,"e","007"
"experiment",1,442,0.681875292205,-0.778466499729,5,0.1,2,0,"quadruplet","odd",0.165050029755,0.665993213654,6,"e","007"
"experiment",4,443,-0.696821896709,0.8643758943,3,0.1,5,0,"quadruplet","odd",0.581498861313,1.94571995735,2,"o","007"
"experiment",1,444,-0.266085740498,-0.179780591012,7,0.1,1,14,"singles","even",0.133133888245,5.33073782921,8,"o","007"
"experiment",2,445,0.865255375454,-0.534977825884,7,0.1,2,14,"singles","odd",0.17449092865,2.1805100441,8,"o","007"
"experiment",4,446,-0.474397962498,-0.607279144481,7,0.1,6,14,"singles","odd",0.142640113831,0.749392032623,8,"o","007"
"experiment",4,447,0.280991453415,0.696708159663,7,0.1,5,14,"singles","even",0.214640855789,0.789976835251,8,"e","007"
"experiment",4,448,-0.522107419341,-0.424310082657,7,0.1,3,14,"singles","even",0.198596000671,0.640539169312,8,"e","007"
"experiment",4,449,-0.0955759720495,0.165695589196,7,0.1,4,14,"singles","even",0.229504823685,0.368317842484,8,"e","007"
"experiment",4,450,0.801832425711,0.870604367881,7,0.1,5,14,"singles","odd",0.166483163834,0.537496089935,8,"o","007"
"experiment",4,451,0.962478566102,-0.246414495551,7,0.1,4,14,"singles","odd",0.118549108505,0.654393911362,8,"o","007"
"experiment",4,452,-0.816566262496,0.516828360404,7,0.1,3,14,"singles","even",0.214479923248,0.307937145233,8,"e","007"
"experiment",2,453,-0.0872089110057,-0.932978270375,7,0.1,2,14,"singles","even",0.150642871857,1.76774001122,8,"o","007"
"experiment",1,454,-0.499718023341,0.130042371339,7,0.1,1,14,"singles","odd",0.133027791977,0.871807098389,8,"e","007"
"experiment",4,455,0.490522715447,-0.0874683802561,7,0.1,6,14,"singles","odd",0.15726184845,0.812649965286,8,"o","007"
"experiment",4,456,-0.614257577196,0.0111654163484,7,0.1,5,29,"pairs","even",0.198644161224,1.17475485802,8,"e","007"
"experiment",1,457,0.414346758907,0.251315088538,9,0.1,3,29,"pairs","odd",0.229085206985,1.61182904243,4,"e","007"
"experiment",4,458,-0.437504590001,-0.292801922981,9,0.1,4,29,"pairs","odd",0.150661945343,0.356096982956,8,"o","007"
"experiment",4,459,0.790659344981,-0.809947622948,7,0.1,6,29,"pairs","even",0.198570013046,0.370722055435,4,"e","007"
"experiment",2,460,-0.508334607422,0.0562337159527,7,0.1,1,29,"pairs","odd",0.174615859985,0.459505081177,4,"o","007"
"experiment",4,461,-0.0741405010804,-0.243456666373,7,0.1,2,29,"pairs","even",0.181526184082,0.815353870392,8,"e","007"
"experiment",1,462,-0.872142708747,0.417353597085,9,0.1,1,29,"pairs","even",0.141076087952,0.555933952332,4,"o","007"
"experiment",4,463,-0.433680653439,0.850323517538,9,0.1,3,29,"pairs","odd",0.190682172775,1.42569112778,4,"o","007"
"experiment",4,464,-0.323275516824,-0.91110848998,9,0.1,6,29,"pairs","odd",0.19859290123,0.268560886383,4,"o","007"
"experiment",4,465,-0.603542298434,-0.0227636880376,9,0.1,5,29,"pairs","even",0.182668924332,1.33358097076,4,"e","007"
"experiment",4,466,-0.353714498348,-0.324878295372,9,0.1,4,29,"pairs","even",0.190668106079,0.374686002731,8,"e","007"
"experiment",3,467,-0.698992862628,0.877711364445,7,0.1,2,29,"pairs","odd",0.317111968994,1.82433986664,4,"o","007"
"experiment",1,468,-0.958365518721,-0.284802495776,3,0.1,3,0,"singles","even",0.117563009262,1.26303100586,2,"e","007"
"experiment",1,469,0.961905543493,0.467810961568,3,0.1,2,0,"singles","even",0.732852220535,0.819698095322,2,"o","007"
"experiment",1,470,-0.172678612818,0.96998711267,3,0.1,1,0,"singles","odd",0.28665804863,1.74219799042,2,"o","007"
"experiment",4,471,-0.601700374556,0.65267091708,3,0.1,4,0,"singles","odd",0.206562995911,0.556144952774,2,"o","007"
"experiment",4,472,0.768887163085,0.256678606273,3,0.1,6,0,"singles","even",0.206627845764,0.420274972916,2,"e","007"
"experiment",4,473,-0.887244244303,-0.642118602411,3,0.1,5,0,"singles","even",0.253397941589,0.229372024536,2,"e","007"
"experiment",4,474,-0.209314688071,0.159815950114,3,0.1,3,0,"singles","odd",0.197391986847,1.08550596237,2,"o","007"
"experiment",2,475,0.445175133998,-0.247840912942,3,0.1,2,0,"singles","odd",0.222609043121,1.09068894386,2,"e","007"
"experiment",4,476,-0.646935142369,-0.424274658171,3,0.1,6,0,"singles","odd",0.166522026062,0.368988990784,2,"o","007"
"experiment",4,477,-0.648975947248,0.14095904381,3,0.1,4,0,"singles","even",0.237335920334,0.353472948074,2,"e","007"
"experiment",1,478,-0.461832790434,0.448278248244,3,0.1,1,0,"singles","odd",0.157519102097,1.51801800728,2,"o","007"
"experiment",3,479,0.778968430017,-0.30387611116,3,0.1,5,0,"singles","even",0.18131518364,3.26885294914,2,"e","007"
"experiment",1,480,0.940325267805,-0.416502526698,7,0.1,1,5,"pairs","odd",0.0945630073547,0.95524597168,2,"o","007"
"experiment",1,481,-0.17533579462,0.579727437953,9,0.1,3,5,"pairs","even",0.230687856674,1.7711520195,4,"o","007"
"experiment",4,482,0.835842035263,0.510155414864,9,0.1,5,5,"pairs","even",0.221133947372,1.07607913017,4,"e","007"
"experiment",1,483,0.106698323318,-0.220881603863,7,0.1,2,5,"pairs","odd",0.148865938187,1.4931910038,2,"e","007"
"experiment",4,484,0.877528568296,0.333331073105,9,0.1,4,5,"pairs","even",0.182564020157,0.39213681221,2,"e","007"
"experiment",4,485,-0.502908296915,-0.189504316702,9,0.1,6,5,"pairs","odd",0.165195226669,0.660392999649,4,"o","007"
"experiment",1,486,-0.519522679585,-0.797102526572,9,0.1,1,5,"pairs","even",0.222566127777,1.53024101257,2,"o","007"
"experiment",2,487,-0.880589702181,0.377336107324,9,0.1,2,5,"pairs","odd",0.142607927322,2.23267197609,2,"o","007"
"experiment",1,488,0.213095323401,0.0577535322873,7,0.1,4,5,"pairs","odd",1.31064510345,1.33590507507,4,"e","007"
"experiment",4,489,0.214696262171,-0.65940707812,7,0.1,5,5,"pairs","even",0.214622020721,0.84475684166,4,"e","007"
"experiment",4,490,0.781841639423,0.492538748734,9,0.1,3,5,"pairs","odd",0.164963006973,0.68816781044,4,"o","007"
"experiment",4,491,-0.716928122579,-0.531750465139,9,0.1,6,5,"pairs","even",0.18266916275,0.520291090012,2,"e","007"
"experiment",1,492,-0.270863798681,-0.300767248631,7,0.1,1,0,"quadruplet","odd",0.28667807579,0.944954872131,2,"o","007"
"experiment",4,493,0.402635777165,-0.395785514996,9,0.1,3,0,"quadruplet","even",1.06131505966,0.53465294838,8,"e","007"
"experiment",4,494,0.985885870444,0.180095482457,5,0.1,6,0,"quadruplet","even",0.214699983597,0.300003051758,6,"e","007"
"experiment",4,495,-0.875000418397,-0.882719567947,9,0.1,4,0,"quadruplet","odd",0.198698997498,0.340256929398,2,"o","007"
"experiment",4,496,0.226264834988,-0.91456195122,5,0.1,5,0,"quadruplet","even",0.214663028717,0.349406003952,6,"e","007"
"experiment",2,497,0.441474819468,0.352829842752,7,0.1,2,0,"quadruplet","odd",0.189127922058,0.752675056458,2,"e","007"
"experiment",1,498,0.988981270769,-0.892337240498,7,0.1,1,0,"quadruplet","even",0.102483034134,0.703124046326,2,"o","007"
"experiment",4,499,-0.555406561612,0.887759705664,9,0.1,5,0,"quadruplet","odd",0.173141956329,0.567272901535,4,"o","007"
"experiment",2,500,-0.9198303255,-0.745855049661,3,0.1,2,0,"quadruplet","even",0.18906712532,3.13879203796,4,"e","007"
"experiment",4,501,-0.522959887961,-0.0519803329102,7,0.1,6,0,"quadruplet","odd",0.132936000824,0.489942789078,4,"o","007"
"experiment",2,502,-0.536618307201,-0.271788241825,3,0.1,3,0,"quadruplet","even",0.158470869064,1.97182583809,4,"o","007"
"experiment",4,503,-0.327194599163,-0.0252345514816,9,0.1,4,0,"quadruplet","odd",0.158576965332,0.506880044937,6,"o","007"
"experiment",4,504,0.855348029903,0.00989733235389,9,0.1,6,11,"singles","even",0.63871383667,0.277240991592,6,"e","007"
"experiment",4,505,0.131443066171,-0.422618314873,9,0.1,5,11,"singles","odd",0.190694093704,0.192841053009,6,"o","007"
"experiment",4,506,-0.582911352042,-0.641714389115,9,0.1,3,11,"singles","odd",0.206751823425,0.204200029373,6,"o","007"
"experiment",1,507,-0.69586575334,0.218449216649,9,0.1,1,11,"singles","even",0.198664903641,0.749751091003,6,"e","007"
"experiment",4,508,-0.376839723184,0.108607045734,9,0.1,4,11,"singles","odd",0.390784978867,0.180151939392,6,"o","007"
"experiment",2,509,0.358336468577,0.711379284653,9,0.1,2,11,"singles","even",0.550606966019,1.45301103592,6,"o","007"
"experiment",2,510,-0.917089107427,-0.0845715427469,9,0.1,3,11,"singles","even",0.157603979111,0.663490056992,6,"e","007"
"experiment",1,511,0.281370993561,0.750418847192,9,0.1,1,11,"singles","odd",0.166536092758,0.576406955719,6,"e","007"
"experiment",4,512,-0.677997727545,0.673252707093,9,0.1,5,11,"singles","even",0.198693037033,0.406795024872,6,"e","007"
"experiment",4,513,-0.876196738419,0.965400392372,9,0.1,6,11,"singles","odd",0.206573009491,0.219746828079,6,"o","007"
"experiment",3,514,-0.0720572640676,-0.811322933963,9,0.1,2,11,"singles","odd",0.133092880249,1.49129605293,6,"o","007"
"experiment",4,515,-0.759146240515,-0.366823252845,9,0.1,4,11,"singles","even",0.214453935623,3.0578110218,6,"e","007"
"experiment",3,516,-0.791611159723,0.182098162237,3,0.1,3,0,"quadruplet","odd",0.254431962967,1.42362117767,2,"o","007"
"experiment",2,517,-0.0850074886148,-0.00823247553861,9,0.1,2,0,"quadruplet","even",0.20653295517,1.29638195038,2,"e","007"
"experiment",1,518,0.24470778612,0.309247620676,3,0.1,1,0,"quadruplet","even",0.19765996933,0.92461180687,2,"o","007"
"experiment",4,519,-0.280177532076,-0.0668194873854,5,0.1,5,0,"quadruplet","odd",0.213287830353,0.54345202446,8,"o","007"
"experiment",4,520,-0.0536839562665,-0.745919610624,3,0.1,4,0,"quadruplet","even",0.246641874313,1.26582694054,8,"e","007"
"experiment",4,521,0.442800932719,0.281966523766,3,0.1,6,0,"quadruplet","even",0.190526008606,0.211578130722,8,"e","007"
"experiment",4,522,-0.787299537526,-0.32771435501,3,0.1,6,0,"quadruplet","odd",2.35048604012,2.20101499557,2,"o","007"
"experiment",4,523,0.279657228284,-0.48391762684,5,0.1,4,0,"quadruplet","odd",0.206696033478,0.378970861435,4,"o","007"
"experiment",1,524,-0.132582413845,0.29929653976,5,0.1,1,0,"quadruplet","odd",0.125442028046,1.32765102386,8,"e","007"
"experiment",4,525,-0.407866325882,0.035368551573,3,0.1,5,0,"quadruplet","even",4.87071585655,1.06831598282,4,"e","007"
"experiment",1,526,0.210581594123,-0.0549574706916,7,0.1,3,0,"quadruplet","odd",0.142740011215,1.04450893402,6,"o","007"
"experiment",3,527,-0.975992473346,-0.454280331445,9,0.1,2,0,"quadruplet","even",0.622547864914,1.04314994812,6,"e","007"
"experiment",1,528,0.480519788556,0.41691889088,9,0.1,2,2,"pairs","even",0.142638921738,1.1310031414,4,"e","007"
"experiment",4,529,0.0978107000256,0.338184652468,9,0.1,3,2,"pairs","even",0.237056016922,0.535967826843,2,"e","007"
"experiment",4,530,-0.529713386685,0.486356589116,9,0.1,6,2,"pairs","odd",0.182565927505,0.21072101593,2,"o","007"
"experiment",4,531,0.65392646539,0.539909615948,3,0.1,5,2,"pairs","odd",0.19043803215,0.365644931793,2,"o","007"
"experiment",3,532,-0.0859969022465,-0.493979296098,3,0.1,4,2,"pairs","even",0.437601089478,0.887542009354,4,"e","007"
"experiment",2,533,-0.109995256292,0.887850935171,3,0.1,1,2,"pairs","odd",0.172873973846,1.22852706909,2,"o","007"
"experiment",1,534,-0.415322119749,0.0357806729671,9,0.1,1,2,"pairs","odd",0.204897880554,0.780757904053,2,"e","007"
"experiment",4,535,0.364926900455,0.811419279368,9,0.1,4,2,"pairs","even",0.174524068832,0.491622209549,4,"e","007"
"experiment",1,536,-0.259702156771,-0.634912434503,3,0.1,3,2,"pairs","odd",0.246494054794,2.36806488037,2,"o","007"
"experiment",4,537,-0.878042475572,-0.579352456105,9,0.1,5,2,"pairs","even",0.22200012207,0.369427919388,4,"e","007"
"experiment",4,538,-0.168860506922,0.785146887018,9,0.1,6,2,"pairs","odd",0.142472028732,2.20261001587,2,"o","007"
"experiment",2,539,-0.217915117365,0.671519242894,3,0.1,2,2,"pairs","even",0.262562036514,2.72027206421,2,"e","007"
"experiment",1,540,-0.00318024525558,0.9130283813,3,0.1,1,0,"quadruplet","even",0.150542020798,0.623240947723,8,"e","007"
"experiment",4,541,-0.25057125301,-0.682903316864,9,0.1,5,0,"quadruplet","odd",0.198463916779,0.335945129395,8,"o","007"
"experiment",4,542,0.260224467101,-0.842304804401,9,0.1,3,0,"quadruplet","even",0.196994066238,0.719460964203,8,"e","007"
"experiment",4,543,-0.267609539327,0.954417210892,3,0.1,6,0,"quadruplet","odd",0.326409101486,6.26656484604,6,"o","007"
"experiment",4,544,-0.977086300098,0.696542784968,3,0.1,4,0,"quadruplet","odd",0.174643993378,0.378039836884,8,"o","007"
"experiment",1,545,-0.901529237702,0.401312877548,5,0.1,2,0,"quadruplet","odd",0.245379924774,0.926090955734,8,"o","007"
"experiment",1,546,-0.456492118692,0.537362130748,9,0.1,1,0,"quadruplet","even",0.125367879868,0.5716381073,4,"o","007"
"experiment",4,547,0.765283498094,0.584469484312,3,0.1,4,0,"quadruplet","even",0.19846701622,0.46225810051,6,"e","007"
"experiment",4,548,0.410103902311,0.420146341861,3,0.1,6,0,"quadruplet","even",0.190518140793,0.350466966629,2,"e","007"
"experiment",2,549,0.16309984095,-0.858603132598,9,0.1,3,0,"quadruplet","odd",0.133172988892,1.5573861599,4,"o","007"
"experiment",2,550,-0.0253697265549,-0.913745438532,5,0.1,2,0,"quadruplet","odd",0.261070013046,0.795163154602,8,"o","007"
"experiment",4,551,-0.183799954283,-0.326491536015,9,0.1,5,0,"quadruplet","even",0.206538200378,0.376110076904,6,"e","007"
"experiment",1,552,-0.517607768925,-0.0766317139132,7,0.1,1,7,"pairs","odd",0.149288892746,1.0797059536,2,"e","007"
"experiment",4,553,-0.669303353499,0.527405594538,7,0.1,4,7,"pairs","even",0.197144985199,0.437763214111,2,"e","007"
"experiment",4,554,-0.804190187222,0.321430845666,7,0.1,6,7,"pairs","odd",0.286613941193,0.586571931839,6,"o","007"
"experiment",4,555,0.263278575555,-0.119051136906,7,0.1,5,7,"pairs","even",0.333233118057,1.736317873,6,"e","007"
"experiment",1,556,0.403310021538,0.97716068431,3,0.1,2,7,"pairs","odd",0.166485071182,0.490077972412,2,"o","007"
"experiment",4,557,-0.492049989642,0.176424270471,7,0.1,3,7,"pairs","odd",0.140899896622,0.63271689415,2,"o","007"
"experiment",2,558,0.44559895527,-0.850313339261,3,0.1,2,7,"pairs","even",0.173018932343,1.30699896812,2,"e","007"
"experiment",1,559,-0.408670545274,-0.0737290732239,7,0.1,1,7,"pairs","even",0.142524003983,1.02775716782,2,"o","007"
"experiment",1,560,-0.00370208048368,-0.566915013906,3,0.1,3,7,"pairs","odd",0.205132007599,0.874351978302,2,"e","007"
"experiment",4,561,0.0997539956503,0.86089154641,3,0.1,5,7,"pairs","even",0.205198049545,0.44015789032,6,"e","007"
"experiment",4,562,0.153181634994,-0.948647393695,3,0.1,4,7,"pairs","even",0.198706865311,0.206191062927,6,"e","007"
"experiment",4,563,-0.505237350898,0.242461956169,7,0.1,6,7,"pairs","odd",0.214771032333,0.259901046753,2,"o","007"
"experiment",4,564,0.826272895201,0.186368579626,5,0.1,6,5,"singles","odd",0.142434835434,0.318779945374,4,"o","007"
"experiment",4,565,0.666856995316,0.976772151972,5,0.1,5,5,"singles","odd",0.198502779007,0.161648988724,4,"o","007"
"experiment",1,566,-0.519051369551,-0.848347341025,5,0.1,3,5,"singles","even",0.117842912674,1.07783389091,4,"e","007"
"experiment",1,567,0.652337389897,0.0946925299988,5,0.1,1,5,"singles","even",0.23733496666,0.779296875,4,"o","007"
"experiment",4,568,0.405465860306,0.691258532863,5,0.1,4,5,"singles","odd",0.206615924835,0.514266967773,4,"o","007"
"experiment",4,569,-0.702780394366,0.714478459864,5,0.1,2,5,"singles","even",0.493076086044,1.51314997673,4,"e","007"
"experiment",2,570,-0.338430125438,-0.436423142945,5,0.1,1,5,"singles","even",0.124979019165,1.37298297882,4,"o","007"
"experiment",4,571,-0.795334603923,0.252051244867,5,0.1,5,5,"singles","odd",0.140851974487,0.699358940125,4,"o","007"
"experiment",4,572,-0.849457362719,0.724836192138,5,0.1,3,5,"singles","odd",0.222455978394,1.13511800766,4,"o","007"
"experiment",4,573,0.109459928055,0.279113395473,5,0.1,6,5,"singles","even",1.50101399422,0.708574056625,4,"e","007"
"experiment",3,574,0.334437062159,-0.479308477197,5,0.1,2,5,"singles","even",0.206453084946,1.00564289093,4,"e","007"
"experiment",4,575,0.661997666386,-0.0480124116041,5,0.1,4,5,"singles","odd",0.205269098282,0.585667848587,4,"o","007"
"experiment",4,576,0.969224195766,0.956708400769,7,0.1,4,15,"pairs","even",0.734634160995,0.475358009338,8,"o","007"
"experiment",1,577,-0.171909443976,0.579799022259,5,0.1,5,15,"pairs","even",1.38258194923,0.175004005432,8,"o","007"
"experiment",4,578,0.755677712816,-0.0917269238956,5,0.1,3,15,"pairs","odd",0.142613887787,1.21945905685,8,"o","007"
"experiment",4,579,-0.101834415806,-0.221441018977,5,0.1,6,15,"pairs","odd",0.134505033493,0.489411830902,8,"o","007"
"experiment",1,580,0.0449500944141,-0.805845473427,7,0.1,2,15,"pairs","odd",0.173155069351,1.40750694275,8,"e","007"
"experiment",1,581,-0.116428121461,-0.687929841869,5,0.1,1,15,"pairs","even",0.278635025024,0.805356025696,8,"o","007"
"experiment",4,582,-0.954360009687,-0.0117378627302,5,0.1,4,15,"pairs","odd",0.165611028671,0.384954929352,2,"o","007"
"experiment",1,583,0.470020064767,-0.768161088321,5,0.1,1,15,"pairs","even",0.198668003082,0.941725969315,8,"o","007"
"experiment",2,584,-0.723029819308,-0.0893469892253,7,0.1,2,15,"pairs","odd",0.238564014435,1.11240410805,2,"e","007"
"experiment",4,585,-0.408701370122,0.199540523167,7,0.1,5,15,"pairs","even",0.198672056198,0.4478328228,2,"e","007"
"experiment",4,586,0.736383328558,-0.697584280644,7,0.1,6,15,"pairs","odd",0.134495019913,0.502022027969,2,"o","007"
"experiment",4,587,0.207348741191,0.910552449183,5,0.1,3,15,"pairs","even",0.188928127289,0.467137098312,2,"e","007"
"experiment",4,588,-0.424185254097,0.159929080943,3,0.1,4,12,"singles","odd",0.206500053406,0.848037004471,8,"o","007"
"experiment",4,589,-0.415891629581,-0.189581721402,3,0.1,2,12,"singles","even",0.197183132172,0.476906061172,8,"e","007"
"experiment",3,590,0.145103978431,0.925465962789,3,0.1,3,12,"singles","odd",0.157011032104,0.772702932358,8,"o","007"
"experiment",1,591,0.150625465369,0.351476675472,3,0.1,1,12,"singles","even",0.565186023712,1.18144607544,8,"e","007"
"experiment",4,592,-0.946320386262,0.864915788997,3,0.1,6,12,"singles","even",0.181267023087,0.469105005264,8,"e","007"
"experiment",4,593,-0.334964297065,0.903446081869,3,0.1,5,12,"singles","odd",0.15052485466,0.375506162643,8,"o","007"
"experiment",1,594,-0.284195993627,-0.0119406469068,3,0.1,2,12,"singles","odd",0.189521074295,0.939756155014,8,"o","007"
"experiment",4,595,0.459099891446,-0.376303602296,3,0.1,3,12,"singles","even",0.206470966339,0.461483001709,8,"e","007"
"experiment",1,596,0.584395368132,-0.293730608971,3,0.1,1,12,"singles","odd",0.133301019669,1.17349791527,8,"o","007"
"experiment",4,597,0.930987543536,-0.68707574259,3,0.1,5,12,"singles","even",0.182575941086,0.302422046661,8,"e","007"
"experiment",4,598,0.207894606325,-0.63156256905,3,0.1,4,12,"singles","odd",0.157497882843,0.34582400322,8,"o","007"
"experiment",4,599,0.655857624819,-0.528388172221,3,0.1,6,12,"singles","even",0.174585819244,0.678491830826,8,"e","007"
"experiment",3,600,0.312783712712,-0.700852516938,9,0.1,4,0,"quadruplet","odd",0.406488895416,0.76669383049,8,"o","007"
"experiment",4,601,0.96704777878,-0.839230718078,7,0.1,5,0,"quadruplet","odd",0.142516851425,0.78955411911,2,"o","007"
"experiment",1,602,0.108478194605,-0.976701966331,9,0.1,2,0,"quadruplet","even",0.150488138199,1.68212604523,2,"o","007"
"experiment",2,603,-0.0589605665789,0.517951695047,5,0.1,1,0,"quadruplet","even",0.493535041809,2.62502408028,6,"e","007"
"experiment",1,604,0.510025156273,-0.799087392194,3,0.1,3,0,"quadruplet","odd",0.166585922241,3.13315820694,4,"o","007"
"experiment",4,605,0.593839769875,0.794142352237,7,0.1,6,0,"quadruplet","even",0.213288068771,0.362061977386,2,"e","007"
"experiment",4,606,-0.472593462461,-0.608040909698,7,0.1,5,0,"quadruplet","odd",0.222659111023,0.372399806976,2,"o","007"
"experiment",1,607,-0.876869362057,-0.208520451098,5,0.1,2,0,"quadruplet","even",0.158720016479,0.624231100082,2,"e","007"
"experiment",3,608,-0.31007376122,-0.174317864123,7,0.1,3,0,"quadruplet","even",0.373001813889,1.53782081604,6,"e","007"
"experiment",2,609,0.426991765352,0.703096692414,5,0.1,1,0,"quadruplet","even",0.158679962158,1.14428901672,4,"o","007"
"experiment",4,610,0.332557794312,-0.248552695863,3,0.1,4,0,"quadruplet","odd",1.08646512032,0.957864046097,2,"o","007"
"experiment",4,611,0.518532007824,-0.267880221299,5,0.1,6,0,"quadruplet","odd",0.174564838409,0.35609292984,2,"o","007"
"experiment",3,612,-0.392837801832,-0.316214680715,7,0.1,3,6,"singles","even",0.270473003387,0.939895868301,4,"e","007"
"experiment",4,613,0.371187754566,-0.958252364223,7,0.1,6,6,"singles","odd",0.213324785233,0.301049947739,4,"o","007"
"experiment",2,614,0.635783582889,-0.75104707868,7,0.1,1,6,"singles","even",0.20663189888,1.47242212296,4,"e","007"
"experiment",4,615,0.200696723694,0.0118474637974,7,0.1,5,6,"singles","odd",0.301131010056,1.7824139595,4,"o","007"
"experiment",4,616,-0.956391478891,-0.796823107229,7,0.1,4,6,"singles","odd",0.205556869507,1.56289696693,4,"o","007"
"experiment",1,617,-0.436250859699,0.672155077193,7,0.1,2,6,"singles","even",0.221630811691,0.549477815628,4,"e","007"
"experiment",4,618,-0.490724662895,0.101483445243,7,0.1,4,6,"singles","odd",0.205432891846,3.28769302368,4,"o","007"
"experiment",3,619,-0.149744628268,0.211423121474,7,0.1,2,6,"singles","even",0.221224069595,1.37788486481,4,"e","007"
"experiment",4,620,0.645165527751,0.967523626616,7,0.1,6,6,"singles","even",0.173061847687,0.579240083694,4,"e","007"
"experiment",4,621,-0.15783678367,0.166218456364,7,0.1,3,6,"singles","odd",0.190639972687,0.416830062866,4,"o","007"
"experiment",4,622,-0.327543220003,0.76689793321,7,0.1,5,6,"singles","odd",0.190723896027,0.204594135284,4,"o","007"
"experiment",1,623,0.415632917025,-0.614017609256,7,0.1,1,6,"singles","even",0.172961950302,0.691534042358,4,"e","007"
"experiment",4,624,0.101700379364,-0.419330150538,3,0.1,4,18,"pairs","odd",0.158660888672,0.544215917587,4,"o","007"
"experiment",1,625,-0.319584642218,0.85003186294,3,0.1,1,18,"pairs","even",0.174633979797,1.10888600349,4,"e","007"
"experiment",1,626,0.136965579569,-0.238925948066,3,0.1,2,18,"pairs","odd",0.174638032913,0.373593091965,4,"o","007"
"experiment",1,627,0.981679602331,0.244956376147,3,0.1,3,18,"pairs","even",0.165113925934,1.03895711899,4,"e","007"
"experiment",4,628,-0.199983704529,0.881047794556,5,0.1,5,18,"pairs","even",0.214617013931,0.313673019409,6,"e","007"
"experiment",4,629,0.934224007104,0.0980869218606,5,0.1,6,18,"pairs","odd",0.190684080124,0.267934083939,4,"o","007"
"experiment",2,630,0.309074170836,-0.366757184439,3,0.1,1,18,"pairs","even",0.157474994659,0.996253013611,6,"o","007"
"experiment",4,631,-0.922358160597,-0.25871359738,3,0.1,2,18,"pairs","odd",0.189250946045,2.31803798676,6,"o","007"
"experiment",4,632,0.428870572304,-0.0432557289212,5,0.1,6,18,"pairs","even",0.213558912277,1.40505504608,6,"e","007"
"experiment",4,633,-0.207632834065,-0.952656605863,3,0.1,5,18,"pairs","odd",0.181304931641,0.901374101639,6,"o","007"
"experiment",4,634,-0.269051384663,0.233709862038,3,0.1,4,18,"pairs","odd",0.157402992249,0.419139146805,4,"o","007"
"experiment",4,635,0.251636546976,0.533548635823,3,0.1,3,18,"pairs","even",0.190646886826,0.362099885941,6,"e","007"
"experiment",4,636,-0.523782424637,-0.539262606532,5,0.1,4,0,"quadruplet","even",0.182507991791,1.19145584106,4,"e","007"
"experiment",1,637,0.411939934533,-0.865492172654,9,0.1,2,0,"quadruplet","odd",0.125601053238,0.640596151352,4,"o","007"
"experiment",4,638,0.67197092156,0.82143893691,5,0.1,5,0,"quadruplet","even",0.214565038681,0.311807870865,2,"e","007"
"experiment",4,639,0.443903765829,-0.0758112945832,7,0.1,6,0,"quadruplet","odd",0.174544811249,0.250941038132,8,"o","007"
"experiment",3,640,0.330097084424,-0.0451728026668,5,0.1,3,0,"quadruplet","odd",0.157577991486,0.938066959381,8,"o","007"
"experiment",1,641,0.792041561088,-0.516047395101,5,0.1,1,0,"quadruplet","even",0.173451900482,0.772155046463,4,"e","007"
"experiment",4,642,0.0301655311167,0.376199915974,5,0.1,6,0,"quadruplet","even",0.190513849258,0.347008943558,6,"e","007"
"experiment",4,643,-0.63832852929,0.614163229933,3,0.1,5,0,"quadruplet","odd",0.182510852814,0.270236968994,2,"o","007"
"experiment",1,644,0.928041453094,-0.899495828695,5,0.1,1,0,"quadruplet","even",0.133538961411,0.610470056534,8,"o","007"
"experiment",2,645,-0.632958165703,-0.897645736648,5,0.1,2,0,"quadruplet","even",0.221196889877,0.622736215591,2,"e","007"
"experiment",2,646,0.87926788361,0.569662202607,3,0.1,3,0,"quadruplet","odd",0.15754199028,1.10807013512,4,"o","007"
"experiment",4,647,-0.817765071336,0.46027918594,9,0.1,4,0,"quadruplet","odd",0.126471042633,0.510557174683,8,"o","007"
"experiment",4,648,0.0881514142601,0.770962994235,3,0.1,4,8,"singles","odd",0.262540102005,0.850312948227,6,"o","007"
"experiment",4,649,-0.931376734601,0.614127304584,3,0.1,6,8,"singles","even",0.198610067368,0.443770885468,6,"e","007"
"experiment",4,650,0.501637491738,0.181753870905,3,0.1,5,8,"singles","even",0.23858499527,0.19384598732,6,"e","007"
"experiment",2,651,0.155695432526,-0.469416110693,3,0.1,1,8,"singles","odd",0.174556970596,0.630642175674,6,"o","007"
"experiment",1,652,-0.84390657542,-0.973305950176,3,0.1,2,8,"singles","even",0.173228025436,1.05500102043,6,"e","007"
"experiment",4,653,0.897008484787,-0.199284313557,3,0.1,3,8,"singles","odd",0.205271959305,1.31024599075,6,"o","007"
"experiment",4,654,0.895398857741,-0.0794356762773,3,0.1,5,8,"singles","even",0.198678016663,0.198160171509,6,"e","007"
"experiment",4,655,0.733822844107,-0.221513155374,3,0.1,4,8,"singles","odd",0.165595054626,1.02528905869,6,"o","007"
"experiment",2,656,0.756455014368,0.130147242151,3,0.1,1,8,"singles","even",0.133516073227,1.55168890953,6,"e","007"
"experiment",4,657,-0.362949137819,0.0722710928592,3,0.1,6,8,"singles","odd",0.173286914825,0.603890895844,6,"o","007"
"experiment",3,658,-0.414593609282,-0.136863959047,3,0.1,2,8,"singles","odd",0.525282859802,1.28175210953,6,"o","007"
"experiment",4,659,-0.00564552422449,-0.882570319225,3,0.1,3,8,"singles","even",0.213335990906,0.949583053589,6,"e","007"
"experiment",3,660,0.615687618329,-0.134652464905,7,0.1,3,0,"quadruplet","even",0.661561012268,1.56331586838,8,"e","007"
"experiment",1,661,0.782854637398,0.514864351604,7,0.1,1,0,"quadruplet","odd",0.164873838425,0.517768859863,6,"o","007"
"experiment",4,662,-0.0246248243676,0.382929092447,3,0.1,6,0,"quadruplet","odd",0.134498119354,0.578852891922,4,"o","007"
"experiment",4,663,-0.153074225799,0.893589173365,9,0.1,4,0,"quadruplet","even",0.222693920135,0.27154302597,6,"e","007"
"experiment",4,664,-0.986268083679,-0.0701567816134,7,0.1,5,0,"quadruplet","odd",0.197576999664,0.446501970291,4,"o","007"
"experiment",1,665,-0.811179725356,-0.841836644927,7,0.1,2,0,"quadruplet","even",0.190619945526,0.490839004517,4,"e","007"
"experiment",4,666,0.0171098526017,0.494947307583,9,0.1,6,0,"quadruplet","odd",0.190587043762,0.289648771286,2,"o","007"
"experiment",1,667,0.085079678337,0.304356102858,9,0.1,2,0,"quadruplet","even",0.270648956299,0.419002056122,6,"e","007"
"experiment",4,668,0.0347709321406,-0.801897716202,9,0.1,5,0,"quadruplet","even",0.277148962021,0.616781949997,8,"e","007"
"experiment",4,669,-0.863159435134,-0.428094997543,9,0.1,3,0,"quadruplet","even",0.245481014252,1.67877411842,2,"e","007"
"experiment",1,670,-0.00551813364495,-0.331656989529,9,0.1,1,0,"quadruplet","odd",0.150515079498,0.934626102448,6,"o","007"
"experiment",4,671,0.301942289877,0.905957902965,5,0.1,4,0,"quadruplet","odd",0.269415855408,0.482253789902,2,"o","007"
"experiment",4,672,0.255001469714,0.644002997157,9,0.1,5,34,"pairs","even",0.49462890625,0.512380123138,8,"e","007"
"experiment",2,673,0.0584961813535,-0.53835424461,5,0.1,4,34,"pairs","even",0.414438962936,2.04450893402,6,"o","007"
"experiment",1,674,-0.0225629187324,0.68729142632,9,0.1,2,34,"pairs","odd",0.173264980316,0.731402158737,8,"e","007"
"experiment",4,675,-0.640726873623,-0.790603492267,9,0.1,3,34,"pairs","odd",0.189694881439,0.773149013519,6,"o","007"
"experiment",4,676,0.96270614201,0.725231529506,9,0.1,6,34,"pairs","even",0.254642963409,0.432998895645,6,"e","007"
"experiment",1,677,-0.329306066318,-0.567653685199,9,0.1,1,34,"pairs","odd",0.124930858612,1.02385616302,6,"o","007"
"experiment",4,678,-0.0693223262376,-0.822334256664,5,0.1,6,34,"pairs","even",0.206517934799,0.461988925934,8,"e","007"
"experiment",4,679,-0.0574358642298,0.860259735972,9,0.1,5,34,"pairs","odd",0.197069168091,0.295445919037,6,"o","007"
"experiment",1,680,-0.212385930862,0.292742036993,5,0.1,1,34,"pairs","even",0.142554998398,0.778416156769,8,"e","007"
"experiment",1,681,-0.93581481457,0.917178161871,5,0.1,2,34,"pairs","odd",0.149251937866,1.17093777657,8,"e","007"
"experiment",1,682,-0.861631174276,-0.737433798795,9,0.1,3,34,"pairs","odd",0.181259155273,0.494061231613,6,"o","007"
"experiment",4,683,-0.160383505984,0.479393842757,9,0.1,4,34,"pairs","even",1.08649206161,1.01889610291,6,"e","007"
"experiment",1,684,-0.920773181388,0.141049671561,7,0.1,1,2,"singles","odd",0.134660959244,2.06662106514,2,"o","007"
"experiment",4,685,0.208994592487,-0.0511331353565,7,0.1,4,2,"singles","odd",0.150604963303,0.974061012268,2,"o","007"
"experiment",2,686,0.82070408136,0.901209092436,7,0.1,2,2,"singles","even",0.133176803589,1.42649006844,2,"e","007"
"experiment",4,687,-0.375152905511,-0.503321245826,7,0.1,6,2,"singles","even",0.196919202805,0.697391986847,2,"e","007"
"experiment",4,688,0.125562171168,-0.489513946325,7,0.1,5,2,"singles","even",0.174484968185,0.289227962494,2,"e","007"
"experiment",4,689,-0.899671689997,-0.831218359612,7,0.1,3,2,"singles","odd",0.134521961212,1.14437890053,2,"o","007"
"experiment",4,690,0.225543851607,0.19221243793,7,0.1,5,2,"singles","even",0.182546854019,0.31534910202,2,"e","007"
"experiment",1,691,-0.667354258566,-0.29719789853,7,0.1,1,2,"singles","odd",0.181203126907,0.705408096313,2,"o","007"
"experiment",1,692,-0.657529188418,-0.93655457209,7,0.1,3,2,"singles","even",0.374676942825,0.553694009781,2,"e","007"
"experiment",1,693,-0.713591096257,-0.948830785155,7,0.1,2,2,"singles","odd",0.222641944885,0.920382976532,2,"o","007"
"experiment",2,694,-0.00216272105107,0.723209904397,7,0.1,4,2,"singles","odd",0.630625009537,5.34776687622,2,"e","007"
"experiment",4,695,0.813752703664,0.31149174892,7,0.1,6,2,"singles","even",0.302578926086,1.29817509651,2,"e","007"
"experiment",1,696,-0.766861911311,-0.680716761309,7,0.1,3,3,"pairs","even",0.109145879745,0.905239105225,4,"o","007"
"experiment",1,697,-0.244732471348,-0.719256206721,7,0.1,2,3,"pairs","odd",0.622502088547,1.23260498047,4,"e","007"
"experiment",4,698,0.813024369881,-0.371345322887,5,0.1,4,3,"pairs","odd",0.149489164352,0.668307065964,4,"o","007"
"experiment",1,699,0.314829477755,0.566424798108,5,0.1,1,3,"pairs","even",0.149342060089,0.851050853729,4,"e","007"
"experiment",4,700,-0.363548404692,0.617285876403,7,0.1,6,3,"pairs","odd",0.206517934799,0.500247001648,2,"o","007"
"experiment",2,701,0.0932056821539,-0.682100785469,7,0.1,5,3,"pairs","even",0.189386129379,1.61589694023,4,"o","007"
"experiment",4,702,-0.610397864192,0.0772696700158,5,0.1,2,3,"pairs","odd",0.198548078537,0.780749082565,2,"o","007"
"experiment",3,703,0.981223647549,0.61752266933,7,0.1,4,3,"pairs","even",0.565617799759,5.7789440155,2,"o","007"
"experiment",4,704,-0.900996129965,-0.274168227611,7,0.1,5,3,"pairs","odd",0.126639127731,0.539113044739,4,"o","007"
"experiment",2,705,0.122701887546,0.727168743862,5,0.1,3,3,"pairs","even",0.229099035263,1.2634871006,4,"e","007"
"experiment",4,706,0.284705992891,0.43766790976,7,0.1,6,3,"pairs","even",0.182656049728,0.441186904907,2,"e","007"
"experiment",1,707,-0.231767356012,0.609083063614,5,0.1,1,3,"pairs","odd",0.173553943634,0.324115991592,4,"o","007"
"experiment",4,708,-0.66759228196,0.0938882598765,9,0.1,5,0,"quadruplet","even",0.206506967545,0.47992682457,4,"e","007"
"experiment",2,709,0.118812585225,0.726853696668,3,0.1,2,0,"quadruplet","odd",0.190513134003,0.344190835953,6,"o","007"
"experiment",1,710,0.666316546801,0.446131542244,9,0.1,1,0,"quadruplet","even",0.12664604187,0.899791955948,8,"e","007"
"experiment",4,711,-0.652781554474,-0.506022233631,3,0.1,6,0,"quadruplet","odd",0.182621955872,0.403600931168,8,"o","007"
"experiment",3,712,0.485731209131,-0.0504921833238,3,0.1,3,0,"quadruplet","odd",0.317268848419,0.949452161789,4,"o","007"
"experiment",4,713,0.60370806677,0.780048096619,3,0.1,4,0,"quadruplet","odd",0.156973838806,0.39097905159,2,"o","007"
"experiment",3,714,0.295606285504,-0.0604507609463,5,0.1,2,0,"quadruplet","even",0.150453090668,1.58524608612,8,"e","007"
"experiment",4,715,0.293276621795,0.568486282543,3,0.1,6,0,"quadruplet","even",0.173305034637,0.664705991745,4,"e","007"
"experiment",4,716,-0.327702714079,-0.63513193297,3,0.1,4,0,"quadruplet","odd",0.133358001709,0.541088104248,6,"o","007"
"experiment",1,717,-0.867014525303,-0.373053118858,3,0.1,1,0,"quadruplet","even",0.126489877701,0.797628879547,2,"o","007"
"experiment",4,718,-0.412677132389,-0.303837797202,3,0.1,5,0,"quadruplet","even",0.206546068192,0.728084802628,2,"e","007"
"experiment",3,719,0.516583655019,0.935513611354,9,0.1,3,0,"quadruplet","odd",0.245289087296,0.776262998581,6,"o","007"
"experiment",3,720,0.63587931497,0.205864871753,5,0.1,3,0,"pairs","even",1.16655802727,0.904022932053,2,"e","007"
"experiment",2,721,0.771365740944,-0.349675505084,3,0.1,1,0,"pairs","even",0.133171081543,0.884401798248,4,"o","007"
"experiment",4,722,-0.11970589365,0.972804612777,5,0.1,6,0,"pairs","odd",0.158497095108,0.254059076309,2,"o","007"
"experiment",2,723,-0.288516897825,-0.99568199158,3,0.1,2,0,"pairs","odd",0.182629823685,0.401653051376,4,"e","007"
"experiment",4,724,-0.685440289496,0.0343835775063,5,0.1,4,0,"pairs","even",0.198458194733,0.378129005432,4,"e","007"
"experiment",4,725,0.977700993048,-0.132899924889,5,0.1,5,0,"pairs","odd",0.166514158249,0.189277887344,4,"o","007"
"experiment",4,726,-0.683936931849,0.798165686628,3,0.1,6,0,"pairs","even",0.182498931885,0.208518981934,4,"e","007"
"experiment",1,727,0.901083833397,0.965647597274,5,0.1,3,0,"pairs","odd",0.125576019287,0.590548038483,2,"e","007"
"experiment",4,728,0.990570791558,0.407506651682,5,0.1,5,0,"pairs","even",0.181047916412,0.348989963531,2,"e","007"
"experiment",4,729,-0.103128911351,0.504268614954,3,0.1,4,0,"pairs","odd",0.189280033112,0.575444936752,2,"o","007"
"experiment",2,730,-0.617458267766,0.987496484456,5,0.1,1,0,"pairs","even",0.134517908096,0.683233976364,4,"o","007"
"experiment",1,731,0.191013394725,-0.373080478884,5,0.1,2,0,"pairs","odd",0.117223978043,0.823482036591,2,"e","007"
"experiment",3,732,-0.0830173029665,0.126553404668,5,0.1,2,0,"quadruplet","even",0.95031619072,1.72490406036,2,"e","007"
"experiment",1,733,-0.786045644922,0.379148792697,7,0.1,1,0,"quadruplet","odd",0.157266139984,1.16528105736,8,"e","007"
"experiment",4,734,0.957939146792,-0.47750926903,5,0.1,4,0,"quadruplet","odd",0.133058071136,0.610296010971,8,"o","007"
"experiment",4,735,0.628721992531,-0.0260276450777,7,0.1,6,0,"quadruplet","even",0.182517051697,0.291464805603,4,"e","007"
"experiment",4,736,-0.512569231751,-0.82752810709,7,0.1,5,0,"quadruplet","even",0.19845199585,5.26250004768,8,"e","007"
"experiment",2,737,0.838930767418,-0.0100617010553,9,0.1,3,0,"quadruplet","even",0.133045911789,1.58074593544,8,"o","007"
"experiment",2,738,0.499715127596,-0.164021020846,5,0.1,1,0,"quadruplet","odd",0.213589906693,0.701943874359,8,"e","007"
"experiment",4,739,-0.490501820597,-0.767435947492,7,0.1,6,0,"quadruplet","odd",0.478453159332,0.826826810837,4,"o","007"
"experiment",3,740,-0.233865275423,0.608683296645,7,0.1,2,0,"quadruplet","even",0.325148105621,0.771426916122,2,"e","007"
"experiment",2,741,-0.957579296741,0.880147031735,3,0.1,3,0,"quadruplet","odd",0.117026090622,1.39058589935,2,"o","007"
"experiment",2,742,0.0293808173009,0.0113301891538,9,0.1,4,0,"quadruplet","odd",0.150625944138,1.80935716629,8,"o","007"
"experiment",4,743,-0.92375552488,-0.279363573021,3,0.1,5,0,"quadruplet","even",0.214447021484,0.391780138016,6,"e","007"
"experiment",1,744,0.00929938350262,0.867281071356,7,0.1,1,10,"singles","odd",0.109215021133,0.766022920609,6,"o","007"
"experiment",1,745,0.930610404177,-0.397784395549,7,0.1,2,10,"singles","even",0.253630161285,2.05678391457,6,"e","007"
"experiment",4,746,-0.592050800601,0.815698680082,7,0.1,3,10,"singles","even",0.197611093521,0.407960891724,6,"e","007"
"experiment",3,747,0.423590204946,-0.0204871087024,7,0.1,4,10,"singles","odd",0.149147987366,0.708970069885,6,"o","007"
"experiment",4,748,-0.703528231629,-0.469099736347,7,0.1,5,10,"singles","odd",0.16663813591,0.573260068893,6,"o","007"
"experiment",4,749,0.530079086287,-0.136664169887,7,0.1,6,10,"singles","even",0.198482990265,0.253232955933,6,"e","007"
"experiment",4,750,-0.434658717338,0.947823991381,7,0.1,4,10,"singles","even",0.205494880676,0.233955144882,6,"e","007"
"experiment",4,751,0.758469253081,0.425493353864,7,0.1,5,10,"singles","odd",0.190559864044,0.23851108551,6,"o","007"
"experiment",4,752,0.400434253707,0.389455306124,7,0.1,3,10,"singles","even",0.214498996735,0.583115100861,6,"e","007"
"experiment",2,753,0.161619343576,0.437304787141,7,0.1,2,10,"singles","odd",0.237532138824,0.896641016006,6,"o","007"
"experiment",1,754,0.999772916859,0.469341514777,7,0.1,1,10,"singles","even",0.262646198273,0.430749177933,6,"e","007"
"experiment",4,755,0.589617871861,0.721943995183,7,0.1,6,10,"singles","odd",0.12664103508,0.665648937225,6,"o","007"
"experiment",3,756,-0.42353510912,-0.11873708171,5,0.1,2,12,"pairs","odd",0.350625038147,1.97454380989,2,"e","007"
"experiment",4,757,-0.114512801329,-0.374139235226,3,0.1,5,12,"pairs","odd",0.149501085281,0.542258024216,8,"o","007"
"experiment",4,758,0.3369965531,-0.74401041952,5,0.1,4,12,"pairs","even",0.197579860687,0.550368070602,8,"e","007"
"experiment",1,759,-0.274043472416,-0.827247744819,5,0.1,1,12,"pairs","even",0.182739019394,0.422045946121,2,"o","007"
"experiment",4,760,-0.997893187155,0.6654785447,3,0.1,6,12,"pairs","even",0.293329954147,4.31309008598,2,"e","007"
"experiment",4,761,-0.715153760631,0.694071517362,5,0.1,3,12,"pairs","even",0.166676998138,0.598081111908,8,"e","007"
"experiment",4,762,0.912182934787,0.505956542763,3,0.1,4,12,"pairs","odd",0.157593011856,0.524461984634,2,"o","007"
"experiment",4,763,0.238566325897,-0.205724657112,3,0.1,6,12,"pairs","odd",0.18249297142,0.653028011322,2,"o","007"
"experiment",1,764,0.757006735785,0.0372477794749,3,0.1,1,12,"pairs","even",0.133162975311,0.965588092804,8,"o","007"
"experiment",4,765,-0.595238025044,0.523613507562,5,0.1,3,12,"pairs","even",0.446608781815,0.518279790878,2,"e","007"
"experiment",2,766,-0.104329805496,0.770303833213,3,0.1,2,12,"pairs","odd",0.149255990982,0.736741065979,8,"e","007"
"experiment",4,767,0.976433789831,-0.438502842056,5,0.1,5,12,"pairs","odd",0.142456054688,0.482798814774,2,"o","007"
"experiment",4,768,0.450721283288,-0.76125009224,5,0.1,5,13,"singles","even",0.21347784996,0.61828494072,8,"e","007"
"experiment",4,769,0.628864571653,-0.514937924677,5,0.1,2,13,"singles","even",0.238534927368,0.339764118195,8,"e","007"
"experiment",4,770,-0.089176506977,0.966690078358,5,0.1,3,13,"singles","odd",0.182700872421,0.262269020081,8,"o","007"
"experiment",4,771,-0.2323324248,0.40016110322,5,0.1,4,13,"singles","odd",0.165516138077,0.360411882401,8,"o","007"
"experiment",1,772,0.546222631383,0.144290276197,5,0.1,1,13,"singles","even",0.142560005188,0.945068836212,8,"o","007"
"experiment",4,773,0.778616313478,-0.927948981006,5,0.1,6,13,"singles","odd",0.166590929031,0.465466976166,8,"o","007"
"experiment",2,774,-0.00852200225287,0.64348158085,5,0.1,2,13,"singles","even",0.149457931519,0.580142974854,8,"e","007"
"experiment",4,775,0.340771667792,-0.860867557255,5,0.1,4,13,"singles","odd",0.117244958878,0.745812177658,8,"o","007"
"experiment",4,776,-0.955790144129,-0.287150896253,5,0.1,5,13,"singles","even",0.214793920517,0.295979976654,8,"e","007"
"experiment",4,777,0.306356436328,0.557329388384,5,0.1,3,13,"singles","even",0.182628154755,0.821882963181,8,"e","007"
"experiment",1,778,0.0470772804175,0.970039849823,5,0.1,1,13,"singles","odd",0.166458845139,1.23305511475,8,"e","007"
"experiment",4,779,0.608826476017,0.473974184869,5,0.1,6,13,"singles","odd",0.142637968063,0.366961956024,8,"o","007"
"experiment",1,780,-0.849233115463,-0.695514169505,7,0.1,2,0,"quadruplet","odd",0.118429899216,0.521435022354,2,"e","007"
"experiment",4,781,-0.179805576153,-0.0112181928227,7,0.1,3,0,"quadruplet","even",0.197640895844,0.351307153702,6,"e","007"
"experiment",2,782,0.486730158065,0.16356558381,3,0.1,1,0,"quadruplet","odd",0.173251867294,1.41833090782,4,"o","007"
"experiment",4,783,0.0465879919241,-0.417759771598,9,0.1,5,0,"quadruplet","even",0.374408006668,0.69294500351,4,"e","007"
"experiment",4,784,0.583431759765,0.604938298592,3,0.1,4,0,"quadruplet","even",0.238486051559,0.8670129776,8,"e","007"
"experiment",4,785,-0.839195351766,0.591517943635,9,0.1,6,0,"quadruplet","odd",0.182545900345,0.237585067749,2,"o","007"
"experiment",3,786,-0.22696299484,-0.89765529939,7,0.1,3,0,"quadruplet","odd",0.222496032715,1.94467806816,6,"e","007"
"experiment",2,787,0.30164378101,0.0499339010449,5,0.1,2,0,"quadruplet","even",0.117466926575,0.777398109436,4,"o","007"
"experiment",4,788,-0.261803657084,-0.494389336991,3,0.1,6,0,"quadruplet","odd",0.158525943756,0.461987018585,8,"o","007"
"experiment",1,789,-0.376447553638,0.280212632797,5,0.1,1,0,"quadruplet","even",0.14953994751,1.20261192322,8,"o","007"
"experiment",4,790,-0.975641235821,0.917239773199,5,0.1,5,0,"quadruplet","even",0.214671850204,0.4861369133,4,"e","007"
"experiment",1,791,-0.796112631102,0.626545493453,9,0.1,4,0,"quadruplet","odd",0.637480020523,0.609480142593,8,"e","007"
"experiment",4,792,0.291753370999,-0.643343010919,9,0.1,6,28,"pairs","even",0.190675973892,0.362020015717,4,"e","007"
"experiment",4,793,0.0182363314437,0.411279809087,9,0.1,4,28,"pairs","odd",0.165338993073,0.361897945404,8,"o","007"
"experiment",4,794,-0.811650782546,0.81065427386,9,0.1,3,28,"pairs","odd",0.158492088318,0.35119509697,4,"o","007"
"experiment",1,795,0.959979510777,0.311255087187,9,0.1,1,28,"pairs","even",0.165201187134,0.791635036469,4,"e","007"
"experiment",4,796,0.828538044796,0.315710765238,9,0.1,5,28,"pairs","odd",0.189253807068,0.410439014435,8,"o","007"
"experiment",2,797,0.312639826109,0.201794633649,5,0.1,2,28,"pairs","even",0.21467089653,0.566802024841,8,"e","007"
"experiment",4,798,0.120678245656,-0.120373993253,5,0.1,6,28,"pairs","odd",0.117199897766,1.2181558609,8,"o","007"
"experiment",1,799,0.443438148658,-0.540077211999,9,0.1,2,28,"pairs","even",0.17354798317,0.679708003998,4,"o","007"
"experiment",3,800,0.715619654858,-0.556806470031,9,0.1,3,28,"pairs","even",0.486527204514,0.513753175735,8,"e","007"
"experiment",4,801,0.33506287121,0.254350778687,9,0.1,4,28,"pairs","odd",0.133452892303,0.567961931229,4,"o","007"
"experiment",1,802,-0.598131168224,0.373147680408,5,0.1,1,28,"pairs","even",0.686647891998,0.790793895721,4,"e","007"
"experiment",4,803,0.115912234136,0.114851977877,5,0.1,5,28,"pairs","odd",0.326485872269,0.397023916245,8,"o","007"
"experiment",1,804,-0.698518439514,0.730961351975,5,0.1,3,9,"singles","even",0.118712186813,1.22381305695,6,"o","007"
"experiment",1,805,0.468263346818,-0.737458810105,5,0.1,1,9,"singles","odd",0.14950299263,0.871933937073,6,"e","007"
"experiment",4,806,0.819396049386,-0.81162383775,5,0.1,4,9,"singles","even",0.254683971405,0.913188934326,6,"e","007"
"experiment",4,807,0.316470262601,-0.585349046259,5,0.1,2,9,"singles","odd",0.190335988998,0.403378009796,6,"o","007"
"experiment",4,808,-0.0775435587906,-0.60546634878,5,0.1,6,9,"singles","even",0.22252702713,0.41371512413,6,"e","007"
"experiment",4,809,-0.975320394095,0.477216940146,5,0.1,5,9,"singles","odd",0.173175096512,0.290814876556,6,"o","007"
"experiment",1,810,0.497950267064,0.0856311286697,5,0.1,1,9,"singles","odd",0.110493898392,1.2360970974,6,"e","007"
"experiment",4,811,0.138801783478,-0.330851727622,5,0.1,6,9,"singles","even",0.190468072891,0.351985931396,6,"e","007"
"experiment",4,812,-0.561837742407,0.460629904085,5,0.1,5,9,"singles","even",0.190356016159,0.322299003601,6,"e","007"
"experiment",3,813,-0.39770523289,0.196425803302,5,0.1,4,9,"singles","odd",0.757400035858,1.1924431324,6,"o","007"
"experiment",1,814,-0.539625581327,0.955181369007,5,0.1,2,9,"singles","odd",0.133821964264,0.839581012726,6,"o","007"
"experiment",3,815,0.279035799938,0.622454749187,5,0.1,3,9,"singles","even",0.462423086166,0.762629985809,6,"e","007"
"experiment",4,816,-0.787997764573,0.769245115967,5,0.1,3,0,"quadruplet","odd",0.150650024414,1.40035700798,4,"o","007"
"experiment",1,817,-0.775523173788,0.125248786884,9,0.1,1,0,"quadruplet","even",0.197152853012,0.831839084625,4,"o","007"
"experiment",4,818,0.283115660323,0.44957439166,7,0.1,5,0,"quadruplet","even",0.165058135986,0.548682928085,8,"e","007"
"experiment",4,819,0.191623776833,0.965358993708,3,0.1,6,0,"quadruplet","odd",0.19037103653,0.435264825821,8,"o","007"
"experiment",3,820,0.380137141533,-0.33278810291,7,0.1,4,0,"quadruplet","even",0.413531064987,0.947673082352,8,"e","007"
"experiment",1,821,0.989040506585,0.519960297156,7,0.1,2,0,"quadruplet","odd",0.165523052216,1.68313598633,6,"o","007"
"experiment",4,822,0.286799589595,-0.516536295903,3,0.1,4,0,"quadruplet","odd",0.494656085968,0.637350082397,8,"o","007"
"experiment",2,823,-0.478688329622,0.476426118473,9,0.1,1,0,"quadruplet","even",0.166599035263,0.813883066177,8,"e","007"
