"trial.type","pas","trial","jitter.x","jitter.y","odd.digit","target.contrast","target.frames","cue","task","target.type","rt.subj","rt.obj","even.digit","obj.resp","subject"
"practice",4,0,0.776846098876,0.373740576928,3,0.1,9,0,"quadruplet","even",8.37484312057,1.33582615852,6,"e","015"
"practice",4,1,-0.613959700017,0.964700296345,5,0.1,8,0,"quadruplet","odd",1.90283489227,1.67812895775,8,"o","015"
"practice",4,2,-0.698655301973,0.921418954347,7,0.1,7,0,"quadruplet","even",2.47864508629,1.81123113632,2,"e","015"
"practice",4,3,-0.0629728817918,-0.0939913239716,9,0.1,6,0,"quadruplet","odd",1.37462592125,1.08331990242,6,"o","015"
"practice",4,4,0.659090160228,-0.102867209637,3,0.1,5,0,"quadruplet","even",1.51887488365,1.15206313133,2,"e","015"
"practice",3,5,-0.0233922218603,-0.917361747425,9,0.1,4,0,"quadruplet","odd",1.44620609283,1.70528697968,4,"e","015"
"practice",2,6,-0.39717143228,0.635780004642,9,0.1,3,0,"quadruplet","even",1.55874085426,2.41518783569,6,"o","015"
"practice",2,7,-0.850935705028,-0.10396158566,5,0.1,2,0,"quadruplet","odd",2.06294798851,1.69059514999,2,"o","015"
"practice",1,8,-0.795167253774,-0.58908553441,5,0.1,1,0,"quadruplet","even",0.606678009033,1.19254398346,8,"e","015"
"practice",4,9,0.593169275961,-0.377260168278,9,0.1,9,0,"quadruplet","odd",1.07880091667,1.5914208889,4,"o","015"
"practice",4,10,0.337278355043,0.712126738144,7,0.1,8,0,"quadruplet","even",0.782791852951,1.25291514397,4,"e","015"
"practice",4,11,-0.139914782564,-0.550573496187,7,0.1,7,0,"quadruplet","odd",0.950817108154,0.865605115891,8,"o","015"
"practice",4,12,-0.890049215047,-0.687372442964,7,0.1,6,0,"quadruplet","even",1.2149438858,1.02219414711,8,"e","015"
"practice",2,13,-0.118785355711,-0.697143239953,3,0.1,5,0,"quadruplet","odd",0.429935932159,1.4520471096,8,"o","015"
"practice",3,14,0.764800517281,0.488159423468,9,0.1,4,0,"quadruplet","even",0.974677085876,0.778206825256,2,"e","015"
"practice",3,15,0.543249583861,0.865443283016,5,0.1,3,0,"quadruplet","odd",0.742861032486,0.976351976395,4,"o","015"
"practice",2,16,-0.634362237135,0.529074328419,7,0.1,2,0,"quadruplet","even",1.13492703438,0.994240999222,2,"e","015"
"practice",1,17,-0.0265000227775,0.824091130622,3,0.1,1,0,"quadruplet","odd",0.982747077942,1.13526201248,4,"o","015"
"experiment",4,0,-0.237715412656,-0.660710893841,7,0.1,6,0,"quadruplet","odd",1.07872414589,1.00920200348,4,"o","015"
"experiment",2,1,-0.83443033694,0.0108911444292,3,0.1,2,0,"quadruplet","odd",0.662905931473,0.978790044785,8,"o","015"
"experiment",4,2,0.796574719152,-0.6171288507,7,0.1,4,0,"quadruplet","even",0.758860826492,1.24682283401,8,"e","015"
"experiment",4,3,0.704440686622,-0.685002701874,3,0.1,5,0,"quadruplet","even",0.550911903381,0.880872011185,6,"e","015"
"experiment",2,4,0.272166213521,-0.493258377222,3,0.1,1,0,"quadruplet","even",0.670657157898,1.57840204239,8,"o","015"
"experiment",2,5,0.852315252401,0.767817133938,7,0.1,3,0,"quadruplet","odd",1.01468300819,1.22784090042,2,"o","015"
"experiment",1,6,-0.671274321999,0.978013103018,7,0.1,1,0,"quadruplet","even",0.974910020828,1.15582895279,4,"e","015"
"experiment",4,7,0.101454005728,0.551813413809,9,0.1,6,0,"quadruplet","odd",0.446824073792,2.05158495903,2,"o","015"
"experiment",4,8,-0.408057641241,-0.44955734607,7,0.1,3,0,"quadruplet","even",0.470875024796,1.04811286926,8,"e","015"
"experiment",3,9,-0.899212995044,-0.853112879219,3,0.1,4,0,"quadruplet","odd",0.662689208984,1.64274501801,4,"o","015"
"experiment",3,10,0.382710181357,-0.512087963647,7,0.1,2,0,"quadruplet","even",1.17471790314,1.36147999763,2,"o","015"
"experiment",4,11,-0.704801232249,-0.328853825813,3,0.1,5,0,"quadruplet","odd",1.07779693604,1.82563304901,4,"o","015"
"experiment",4,12,0.334433742726,0.907248968744,3,0.1,5,14,"pairs","even",0.494627952576,1.4619538784,8,"e","015"
"experiment",4,13,0.464265527821,0.0963306021051,3,0.1,6,14,"pairs","even",1.87074899673,0.812400102615,2,"e","015"
"experiment",3,14,-0.595766791319,-0.301773753684,3,0.1,3,14,"pairs","odd",1.02276206017,1.15032601357,8,"o","015"
"experiment",2,15,0.647863568011,-0.370369573741,3,0.1,2,14,"pairs","odd",0.92666387558,1.80454707146,8,"e","015"
"experiment",4,16,-0.89901081092,-0.820018791328,9,0.1,4,14,"pairs","odd",0.558691978455,1.47159004211,2,"o","015"
"experiment",2,17,0.460383656843,-0.996809516823,3,0.1,1,14,"pairs","odd",1.08671092987,1.85348510742,8,"o","015"
"experiment",1,18,0.552630691401,0.951307715978,9,0.1,1,14,"pairs","even",0.734877109528,1.17077088356,2,"e","015"
"experiment",3,19,0.488150454013,-0.531276532436,3,0.1,2,14,"pairs","even",0.87891793251,1.53586792946,8,"o","015"
"experiment",4,20,-0.49667649676,-0.0684394195358,9,0.1,6,14,"pairs","even",0.542964935303,0.859839916229,8,"e","015"
"experiment",4,21,0.207671384144,-0.377773447954,9,0.1,4,14,"pairs","odd",0.926750183105,0.716464042664,8,"o","015"
"experiment",3,22,0.743637332447,0.19302727583,3,0.1,5,14,"pairs","odd",0.566800117493,3.80978083611,8,"e","015"
"experiment",3,23,-0.820047209216,-0.515252334075,3,0.1,3,14,"pairs","even",0.838932991028,1.44762587547,8,"e","015"
"experiment",4,24,-0.593530532125,-0.808957956642,5,0.1,3,9,"singles","even",0.54297208786,1.45771002769,6,"e","015"
"experiment",4,25,-0.0893798314642,0.64413956781,5,0.1,4,9,"singles","odd",0.950675964355,0.796498775482,6,"o","015"
"experiment",4,26,-0.68657442672,0.446539803035,5,0.1,6,9,"singles","even",0.406026124954,0.785342931747,6,"e","015"
"experiment",3,27,0.0748552033792,0.23368975179,5,0.1,2,9,"singles","odd",0.606913089752,1.05820798874,6,"e","015"
"experiment",2,28,-0.0215113825771,0.171057238582,5,0.1,1,9,"singles","even",0.542720079422,0.994791030884,6,"o","015"
"experiment",4,29,0.744613694998,0.789601751262,5,0.1,5,9,"singles","odd",0.750838041306,0.91406083107,6,"o","015"
"experiment",4,30,-0.538126477734,0.829180697455,5,0.1,3,9,"singles","even",0.67880487442,0.608837127686,6,"e","015"
"experiment",3,31,0.0730055547011,0.10151657537,5,0.1,4,9,"singles","odd",0.526821136475,0.898890972137,6,"e","015"
"experiment",2,32,-0.797301444953,-0.785068612969,5,0.1,2,9,"singles","odd",0.622828006744,1.26902198792,6,"o","015"
"experiment",4,33,-0.0705632950927,-0.633093558381,5,0.1,5,9,"singles","even",0.542699813843,0.664318084717,6,"e","015"
"experiment",4,34,-0.312788297217,0.996358329806,5,0.1,6,9,"singles","odd",0.542987823486,1.00520801544,6,"o","015"
"experiment",2,35,0.120780604548,0.0112419630835,5,0.1,1,9,"singles","even",0.471025943756,1.17520999908,6,"e","015"
"experiment",3,36,-0.769724892857,-0.80918311413,9,0.1,4,0,"quadruplet","odd",1.83099794388,0.920284986496,4,"o","015"
"experiment",4,37,-0.203785841545,-0.140675778481,3,0.1,6,0,"quadruplet","even",0.759051084518,0.715178966522,8,"e","015"
"experiment",4,38,-0.88777723813,-0.972157891873,7,0.1,5,0,"quadruplet","odd",0.567038059235,0.400078058243,8,"o","015"
"experiment",3,39,-0.815070577392,-0.759477670669,7,0.1,1,0,"quadruplet","even",0.454971790314,1.22820401192,2,"e","015"
"experiment",2,40,-0.77363077588,-0.640477078212,5,0.1,3,0,"quadruplet","odd",0.638780117035,1.31129598618,2,"o","015"
"experiment",2,41,-0.304238262951,-0.961551726885,7,0.1,2,0,"quadruplet","odd",0.574786186218,1.9892449379,2,"o","015"
"experiment",4,42,-0.603557682442,0.952360069627,9,0.1,2,0,"quadruplet","even",0.366715908051,3.56100797653,8,"e","015"
"experiment",4,43,0.735043213391,0.195899111113,7,0.1,6,0,"quadruplet","even",0.558776140213,1.18833994865,4,"e","015"
"experiment",3,44,-0.616841914328,-0.0113652370618,3,0.1,4,0,"quadruplet","odd",0.83110499382,1.06064105034,8,"o","015"
"experiment",2,45,-0.701328213561,-0.0485825288884,5,0.1,1,0,"quadruplet","even",0.82296705246,3.37829494476,8,"o","015"
"experiment",3,46,-0.136095957606,0.509570789319,7,0.1,5,0,"quadruplet","odd",0.470734834671,1.46270108223,4,"e","015"
"experiment",2,47,0.696122570979,-0.4980190818,5,0.1,3,0,"quadruplet","even",0.398782014847,2.05534100533,2,"o","015"
"experiment",2,48,0.732053463022,0.114776888169,7,0.1,2,21,"pairs","even",0.550765037537,2.06750106812,6,"o","015"
"experiment",2,49,-0.8052155744,0.874844310464,5,0.1,1,21,"pairs","odd",0.494995117188,2.03161215782,4,"e","015"
"experiment",3,50,-0.80538889871,0.571796998507,5,0.1,4,21,"pairs","even",0.246716022491,4.13006901741,6,"e","015"
"experiment",2,51,0.892916165817,-0.794964806674,7,0.1,3,21,"pairs","odd",0.942778110504,3.10998797417,6,"e","015"
"experiment",4,52,-0.0105606410022,-0.123668852568,7,0.1,5,21,"pairs","odd",0.822894096375,1.4961810112,6,"o","015"
"experiment",4,53,0.00601662557349,0.197135635734,5,0.1,6,21,"pairs","even",0.614969968796,0.953547954559,6,"e","015"
"experiment",3,54,-0.152148390761,0.919570291864,5,0.1,1,21,"pairs","even",0.662133932114,1.83913588524,4,"o","015"
"experiment",3,55,0.03405866769,-0.618877741869,5,0.1,5,21,"pairs","odd",0.8629758358,0.944652080536,4,"o","015"
"experiment",4,56,-0.309419357416,-0.385090265492,7,0.1,6,21,"pairs","even",1.8629629612,0.653755903244,6,"e","015"
"experiment",4,57,-0.49228997053,-0.715254181464,5,0.1,4,21,"pairs","odd",0.615021944046,0.733841896057,6,"o","015"
"experiment",3,58,-0.381185637365,-0.0550278281654,5,0.1,2,21,"pairs","odd",0.558871030807,1.55186319351,4,"o","015"
"experiment",2,59,-0.981527289651,-0.30787323825,5,0.1,3,21,"pairs","even",0.51084113121,2.7354991436,6,"e","015"
"experiment",3,60,0.150341886909,-0.436096460361,7,0.1,1,6,"singles","even",0.950981140137,1.10918402672,4,"e","015"
"experiment",3,61,0.449346667082,-0.460755870946,7,0.1,3,6,"singles","odd",0.791016817093,1.11044311523,4,"o","015"
"experiment",4,62,0.0759310276252,0.705383617099,7,0.1,6,6,"singles","odd",0.479095935822,0.793083906174,4,"o","015"
"experiment",2,63,0.775403281037,0.555685979168,7,0.1,2,6,"singles","even",1.07103991508,1.52906179428,4,"e","015"
"experiment",4,64,-0.756106730436,-0.388479890276,7,0.1,5,6,"singles","odd",1.13494205475,0.669796943665,4,"o","015"
"experiment",4,65,0.202426247617,-0.853509870947,7,0.1,4,6,"singles","even",0.958910942078,0.844156980515,4,"o","015"
"experiment",4,66,-0.646137042751,0.535629552615,7,0.1,6,6,"singles","even",0.718794822693,0.652065992355,4,"e","015"
"experiment",3,67,0.51565002948,-0.392652135551,7,0.1,3,6,"singles","odd",0.526851892471,1.48836898804,4,"o","015"
"experiment",2,68,0.436540615207,-0.128061071994,7,0.1,2,6,"singles","even",0.398907899857,1.51590299606,4,"e","015"
"experiment",3,69,-0.125548788362,-0.195398502848,7,0.1,4,6,"singles","odd",0.894981145859,0.620220184326,4,"o","015"
"experiment",4,70,0.405370893993,0.0606199035856,7,0.1,5,6,"singles","odd",0.926091909409,0.285197019577,4,"o","015"
"experiment",1,71,0.683807892503,0.970626711758,7,0.1,1,6,"singles","even",0.734960079193,1.24993109703,4,"e","015"
"experiment",3,72,-0.34787259888,0.138411524761,5,0.1,2,6,"pairs","even",0.518813848495,2.57870197296,2,"o","015"
"experiment",3,73,0.0362875194163,0.121495299323,5,0.1,1,6,"pairs","odd",0.751001119614,1.25592494011,2,"e","015"
"experiment",3,74,-0.783209425297,-0.386184549713,3,0.1,5,6,"pairs","odd",0.622996091843,1.04538702965,2,"o","015"
"experiment",3,75,0.53500391183,-0.0384390726688,5,0.1,3,6,"pairs","even",2.95097088814,4.01770591736,6,"o","015"
"experiment",4,76,-0.996322334888,0.968180333672,3,0.1,6,6,"pairs","even",0.830857992172,0.790504932404,2,"e","015"
"experiment",4,77,-0.964656955291,0.908181408553,5,0.1,4,6,"pairs","odd",0.766991138458,0.845103979111,2,"o","015"
"experiment",4,78,-0.460731141667,0.539900245755,3,0.1,6,6,"pairs","odd",0.877843856812,0.639716863632,2,"o","015"
"experiment",2,79,-0.92113185803,-0.298639918415,5,0.1,1,6,"pairs","even",0.750811815262,1.92296504974,2,"o","015"
"experiment",2,80,0.409966372677,-0.843360744139,5,0.1,2,6,"pairs","odd",1.15101194382,1.00868105888,6,"e","015"
"experiment",2,81,-0.856972656083,0.82472300615,3,0.1,5,6,"pairs","even",0.382978200912,1.04988598824,2,"e","015"
"experiment",3,82,-0.616419385651,0.390543487877,3,0.1,3,6,"pairs","even",1.01496195793,1.75583791733,6,"e","015"
"experiment",4,83,0.255915311834,0.618051998325,5,0.1,4,6,"pairs","odd",0.718829870224,0.864798069,2,"e","015"
"experiment",2,84,-0.773288229336,0.1735042728,5,0.1,2,0,"quadruplet","odd",0.862843036652,1.9847240448,6,"o","015"
"experiment",4,85,0.294152878745,0.839985859481,9,0.1,6,0,"quadruplet","even",0.606230020523,0.564344882965,4,"e","015"
"experiment",4,86,0.177710245844,-0.116580812522,5,0.1,4,0,"quadruplet","even",0.366161108017,0.798232078552,6,"e","015"
"experiment",3,87,0.265351434223,-0.800911491047,3,0.1,5,0,"quadruplet","odd",0.558854818344,0.764335870743,2,"o","015"
"experiment",4,88,0.285596160723,-0.551009798031,3,0.1,3,0,"quadruplet","even",0.535005092621,1.34240198135,8,"e","015"
"experiment",3,89,-0.213105369865,-0.355446521797,3,0.1,1,0,"quadruplet","odd",0.502843141556,1.28467679024,2,"o","015"
"experiment",4,90,-0.50747783627,-0.679359265231,3,0.1,5,0,"quadruplet","odd",0.790960073471,0.719442844391,8,"o","015"
"experiment",4,91,-0.732623196124,-0.0139252779736,3,0.1,6,0,"quadruplet","even",0.822862148285,1.05925989151,4,"e","015"
"experiment",2,92,-0.437799075378,0.458691141887,5,0.1,1,0,"quadruplet","odd",0.718322038651,1.25463700294,8,"o","015"
"experiment",4,93,-0.920835257179,-0.227130551233,3,0.1,4,0,"quadruplet","odd",0.566776990891,0.568525075912,8,"o","015"
"experiment",3,94,0.815693443779,-0.579563851931,9,0.1,2,0,"quadruplet","even",1.17497992516,1.08362007141,2,"o","015"
"experiment",2,95,-0.0370279785309,0.0235565159005,5,0.1,3,0,"quadruplet","even",0.751026153564,1.21922206879,6,"e","015"
"experiment",4,96,0.471271274861,0.0562909349964,3,0.1,4,8,"singles","odd",1.02278494835,0.894548177719,6,"o","015"
"experiment",3,97,0.0959688414108,-0.217336093832,3,0.1,2,8,"singles","even",0.478838920593,0.903153181076,6,"e","015"
"experiment",2,98,-0.0136379042183,-0.395686820159,3,0.1,1,8,"singles","odd",0.910970926285,1.54765605927,6,"o","015"
"experiment",4,99,-0.965483665491,0.854309106883,3,0.1,5,8,"singles","even",0.430873155594,0.791342020035,6,"e","015"
"experiment",1,100,-0.296950556875,-0.533016332977,3,0.1,3,8,"singles","even",0.645855903625,2.32637310028,6,"o","015"
"experiment",4,101,0.422940755463,0.934420182655,3,0.1,6,8,"singles","even",0.630770921707,0.913166046143,6,"e","015"
"experiment",2,102,0.899917609865,-0.376514587519,3,0.1,1,8,"singles","odd",0.454846858978,1.30247497559,6,"o","015"
"experiment",3,103,-0.881621961184,-0.0428506119343,3,0.1,3,8,"singles","odd",0.559093952179,0.79957485199,6,"o","015"
"experiment",2,104,-0.583432997285,-0.530817483798,3,0.1,2,8,"singles","odd",0.262917995453,1.74592804909,6,"o","015"
"experiment",4,105,0.327337924535,-0.808389925156,3,0.1,5,8,"singles","even",0.52686214447,0.561618089676,6,"e","015"
"experiment",4,106,-0.584526503243,-0.262471382535,3,0.1,6,8,"singles","odd",1.35103106499,0.482985019684,6,"o","015"
"experiment",4,107,-0.895130585595,0.428930414957,3,0.1,4,8,"singles","even",0.614306926727,1.21238303185,6,"e","015"
"experiment",3,108,-0.312647731852,0.68337279771,5,0.1,1,3,"pairs","even",0.726962089539,1.51126194,2,"o","015"
"experiment",2,109,-0.257242056503,-0.969023468614,7,0.1,3,3,"pairs","even",0.41485619545,1.26659917831,4,"e","015"
"experiment",4,110,-0.547577994787,-0.321090337046,7,0.1,5,3,"pairs","odd",0.559011936188,0.446063995361,2,"o","015"
"experiment",4,111,-0.799223655675,0.689987503834,5,0.1,6,3,"pairs","odd",0.711031913757,0.348898887634,2,"o","015"
"experiment",4,112,0.23185789629,0.51009441395,7,0.1,4,3,"pairs","odd",0.399013996124,0.227012872696,4,"o","015"
"experiment",3,113,0.317013850958,-0.613858229321,5,0.1,2,3,"pairs","odd",0.478964090347,0.651103019714,2,"o","015"
"experiment",4,114,0.981266379906,0.788500402955,7,0.1,5,3,"pairs","even",0.758955955505,0.608383893967,4,"e","015"
"experiment",3,115,-0.878095845663,-0.64673779543,5,0.1,2,3,"pairs","even",0.662920951843,1.35374188423,4,"e","015"
"experiment",2,116,0.301306501944,0.738019197159,5,0.1,4,3,"pairs","odd",0.446957826614,1.94441699982,4,"o","015"
"experiment",4,117,0.202393818713,-0.71261533457,7,0.1,6,3,"pairs","odd",1.30301189423,1.10391998291,2,"o","015"
"experiment",3,118,0.810810126656,-0.752242741166,5,0.1,3,3,"pairs","even",0.398820161819,1.22427582741,4,"e","015"
"experiment",3,119,0.174679917918,0.556425341984,5,0.1,1,3,"pairs","even",0.558072090149,1.23744916916,4,"o","015"
"experiment",2,120,0.182202943469,-0.668676493006,3,0.1,1,0,"singles","even",0.486830949783,1.9931678772,2,"e","015"
"experiment",4,121,0.859679091728,-0.78282227007,3,0.1,5,0,"singles","odd",0.454779863358,0.955106973648,2,"o","015"
"experiment",4,122,-0.253504269619,0.112904817571,3,0.1,6,0,"singles","even",1.35099601746,0.752456188202,2,"e","015"
"experiment",4,123,0.917635285988,0.00991182209301,3,0.1,4,0,"singles","odd",0.678926944733,0.515918970108,2,"o","015"
"experiment",2,124,0.964402280887,0.5710809769,3,0.1,2,0,"singles","odd",0.894869089127,0.962779998779,2,"o","015"
"experiment",2,125,-0.430914826874,0.23801146302,3,0.1,3,0,"singles","even",1.72702598572,1.08777809143,2,"o","015"
"experiment",4,126,0.699020380798,0.957697185956,3,0.1,4,0,"singles","even",0.838991165161,0.667098999023,2,"e","015"
"experiment",4,127,0.812617547327,-0.130040445915,3,0.1,6,0,"singles","odd",0.606584072113,0.713830947876,2,"o","015"
"experiment",2,128,-0.758291198059,0.204276677566,3,0.1,1,0,"singles","even",0.549965143204,0.761425018311,2,"e","015"
"experiment",2,129,-0.233486504845,-0.822414857295,3,0.1,3,0,"singles","even",0.83100605011,1.19477510452,2,"o","015"
"experiment",4,130,-0.0704840795339,0.356079082151,3,0.1,5,0,"singles","odd",0.702844142914,0.650984048843,2,"o","015"
"experiment",2,131,0.535780905539,0.177252704526,3,0.1,2,0,"singles","odd",0.590909957886,0.842463970184,2,"o","015"
"experiment",4,132,-0.0282591068557,0.0170148646791,5,0.1,6,0,"quadruplet","odd",0.527005910873,0.962254047394,4,"o","015"
"experiment",4,133,-0.627022032446,0.330791564713,3,0.1,4,0,"quadruplet","even",0.758760929108,1.51485586166,4,"o","015"
"experiment",2,134,0.835142962903,0.207446241657,5,0.1,2,0,"quadruplet","even",0.414928197861,1.35702896118,6,"e","015"
"experiment",4,135,-0.0301446479054,-0.471464198649,5,0.1,5,0,"quadruplet","odd",0.630998849869,0.584187030792,2,"o","015"
"experiment",3,136,-0.31826690161,0.982160532474,7,0.1,1,0,"quadruplet","odd",0.526907205582,1.013890028,6,"o","015"
"experiment",2,137,0.190496002501,-0.879284742593,7,0.1,3,0,"quadruplet","even",1.24616098404,1.06908106804,2,"e","015"
"experiment",2,138,0.573213797309,0.943508969899,3,0.1,1,0,"quadruplet","odd",0.582933187485,1.97454214096,8,"o","015"
"experiment",2,139,-0.245855047066,-0.149084900518,7,0.1,5,0,"quadruplet","even",0.431032896042,0.97571182251,4,"e","015"
"experiment",4,140,0.347551163113,0.523200922164,3,0.1,4,0,"quadruplet","even",0.286811828613,0.638594150543,6,"e","015"
"experiment",3,141,0.302590584868,0.466861245381,5,0.1,2,0,"quadruplet","odd",0.534829139709,1.04654502869,8,"o","015"
"experiment",3,142,0.65397473283,-0.853523346314,7,0.1,3,0,"quadruplet","even",0.350965976715,1.35596203804,4,"o","015"
"experiment",4,143,-0.421269191228,-0.18892349167,5,0.1,6,0,"quadruplet","odd",0.638115167618,0.640242099762,6,"o","015"
"experiment",4,144,-0.0243474725611,0.673696543936,5,0.1,6,12,"pairs","odd",0.886871814728,1.01190519333,8,"o","015"
"experiment",4,145,0.333529200656,0.855395607873,3,0.1,5,12,"pairs","even",0.398931026459,1.44129300117,8,"e","015"
"experiment",4,146,-0.871038798732,-0.726379571026,5,0.1,4,12,"pairs","odd",0.447017908096,0.697273015976,8,"o","015"
"experiment",2,147,0.732645109542,0.0449621403529,3,0.1,2,12,"pairs","even",0.447070121765,0.944847822189,8,"e","015"
"experiment",3,148,0.645340266121,-0.699598059423,3,0.1,3,12,"pairs","odd",0.438316106796,2.37587594986,2,"e","015"
"experiment",2,149,-0.634732745731,0.861059432546,5,0.1,1,12,"pairs","even",1.5669529438,1.92132592201,2,"o","015"
"experiment",2,150,0.00343556348821,0.913771148504,3,0.1,4,12,"pairs","odd",0.398910045624,1.81048297882,2,"o","015"
"experiment",2,151,-0.519444323371,-0.92361045869,3,0.1,1,12,"pairs","even",0.943028926849,1.22147703171,8,"e","015"
"experiment",3,152,0.239586985486,-0.704340177598,5,0.1,5,12,"pairs","even",0.718080043793,0.92991399765,2,"e","015"
"experiment",3,153,0.201006185475,0.883933749904,3,0.1,2,12,"pairs","odd",0.590981006622,1.11229419708,2,"o","015"
"experiment",4,154,-0.988757414676,-0.819444286993,3,0.1,6,12,"pairs","even",0.846870183945,1.01967191696,2,"e","015"
"experiment",2,155,-0.771672845645,0.110995367818,3,0.1,3,12,"pairs","odd",1.00685501099,1.45185303688,2,"o","015"
"experiment",2,156,0.984552362306,0.510278852812,7,0.1,2,2,"singles","even",1.31888484955,1.25805401802,2,"e","015"
"experiment",3,157,-0.0289796370326,-0.432682264633,7,0.1,3,2,"singles","even",0.478955030441,0.944042921066,2,"o","015"
"experiment",2,158,0.574877022424,-0.0705077793856,7,0.1,4,2,"singles","odd",0.5909678936,1.14405202866,2,"e","015"
"experiment",2,159,0.459731013205,-0.145333529481,7,0.1,1,2,"singles","odd",0.918165922165,1.37458181381,2,"o","015"
"experiment",4,160,0.151658952128,0.00306047967522,7,0.1,6,2,"singles","even",0.622779846191,1.18088793755,2,"e","015"
"experiment",4,161,-0.360722662952,0.296012958942,7,0.1,5,2,"singles","even",1.09426188469,0.70355796814,2,"e","015"
"experiment",3,162,-0.957091211151,-0.47053391615,7,0.1,3,2,"singles","odd",2.01488900185,1.03908014297,2,"o","015"
"experiment",3,163,0.757045839652,0.95161942612,7,0.1,4,2,"singles","odd",2.35096287727,0.544006109238,2,"o","015"
"experiment",2,164,0.658056567408,0.00926970795588,7,0.1,2,2,"singles","odd",1.0781981945,0.994720935822,2,"e","015"
"experiment",3,165,0.0565155731071,0.348498088245,7,0.1,1,2,"singles","even",1.5342040062,0.854964017868,2,"o","015"
"experiment",4,166,0.463164382282,0.0465012757143,7,0.1,5,2,"singles","odd",1.17472910881,0.331041097641,2,"o","015"
"experiment",4,167,-0.709657328825,0.517225428176,7,0.1,6,2,"singles","even",1.5988240242,0.756500005722,2,"e","015"
"experiment",3,168,0.0501009822694,0.332322478794,9,0.1,1,0,"quadruplet","odd",0.766947984695,2.03389596939,2,"e","015"
"experiment",3,169,0.130714234505,0.538968981982,7,0.1,6,0,"quadruplet","odd",0.615006923676,0.558965206146,8,"o","015"
"experiment",4,170,0.931055380985,0.651348067699,9,0.1,4,0,"quadruplet","even",0.863013982773,0.443140983582,2,"e","015"
"experiment",3,171,-0.459744251005,0.560575427837,7,0.1,3,0,"quadruplet","even",0.741913795471,1.35825586319,2,"o","015"
"experiment",2,172,0.633499436395,0.18647623052,9,0.1,2,0,"quadruplet","odd",1.30200314522,0.730694055557,4,"e","015"
"experiment",4,173,0.227454377185,-0.644725875192,9,0.1,5,0,"quadruplet","even",0.678161144257,0.768825054169,2,"e","015"
"experiment",4,174,0.351097500056,0.768553578056,3,0.1,5,0,"quadruplet","even",0.606922864914,0.722407102585,4,"e","015"
"experiment",4,175,0.310863270936,-0.418286661094,3,0.1,4,0,"quadruplet","odd",0.974764823914,0.817003965378,6,"o","015"
"experiment",4,176,0.533850774382,-0.292910209192,7,0.1,6,0,"quadruplet","odd",0.582993030548,0.555233001709,4,"o","015"
"experiment",3,177,0.531052836689,0.0193882433595,9,0.1,1,0,"quadruplet","odd",0.663008928299,1.00604009628,4,"o","015"
"experiment",3,178,0.247335962853,0.860683120481,9,0.1,2,0,"quadruplet","even",0.597991228104,0.890639066696,8,"o","015"
"experiment",3,179,-0.566978264504,-0.993013873752,5,0.1,3,0,"quadruplet","even",0.574890851974,0.89790391922,8,"e","015"
"experiment",4,180,0.380645601635,-0.963062206173,5,0.1,5,5,"singles","even",0.718863964081,1.04039001465,4,"e","015"
"experiment",4,181,0.750763063415,0.549425584814,5,0.1,4,5,"singles","odd",0.494890928268,0.394899129868,4,"o","015"
"experiment",3,182,-0.0614216246455,0.220119278212,5,0.1,2,5,"singles","odd",0.365828990936,0.672734975815,4,"e","015"
"experiment",2,183,-0.0329923364932,0.260182359566,5,0.1,3,5,"singles","even",0.934135913849,0.453344106674,4,"o","015"
"experiment",4,184,0.166634716039,-0.40908333481,5,0.1,6,5,"singles","even",0.510917901993,0.525340080261,4,"e","015"
"experiment",3,185,-0.82037116046,0.353899430478,5,0.1,1,5,"singles","even",0.623001098633,0.908616065979,4,"o","015"
"experiment",4,186,-0.277872045861,0.0226885627352,5,0.1,4,5,"singles","odd",0.782873868942,0.274791002274,4,"o","015"
"experiment",4,187,0.0755016819013,-0.659813907575,5,0.1,5,5,"singles","odd",0.559010028839,0.114204883575,4,"o","015"
"experiment",4,188,-0.504404206024,0.521943011283,5,0.1,6,5,"singles","odd",0.58305811882,0.131579875946,4,"o","015"
"experiment",3,189,-0.478464703507,0.133843393402,5,0.1,1,5,"singles","odd",0.478163003922,0.81791806221,4,"e","015"
"experiment",2,190,-0.837674213475,-0.507224229582,5,0.1,2,5,"singles","even",0.49499297142,0.711040019989,4,"e","015"
"experiment",2,191,0.797802993488,-0.872534611284,5,0.1,3,5,"singles","even",0.519035100937,2.99834084511,4,"e","015"
"experiment",3,192,0.693943646144,0.259998869459,3,0.1,4,8,"pairs","even",2.71089291573,0.981647014618,6,"e","015"
"experiment",3,193,-0.890222777443,-0.754167524851,3,0.1,5,8,"pairs","odd",0.839019060135,0.926283836365,6,"o","015"
"experiment",1,194,0.921824401019,0.126144330933,9,0.1,2,8,"pairs","even",0.286787033081,2.77877998352,2,"e","015"
"experiment",4,195,0.440104382713,-0.852661681834,3,0.1,6,8,"pairs","odd",0.702888965607,0.847306966782,6,"o","015"
"experiment",2,196,0.513473620329,0.820041552678,9,0.1,1,8,"pairs","even",0.717909812927,1.3974378109,2,"o","015"
"experiment",2,197,0.766910922824,-0.500062396867,9,0.1,3,8,"pairs","odd",0.381968975067,1.2865729332,2,"e","015"
"experiment",4,198,0.930287725547,0.100496764368,3,0.1,5,8,"pairs","even",0.566908121109,1.01617407799,6,"e","015"
"experiment",2,199,0.112586214632,-0.420435143631,3,0.1,1,8,"pairs","odd",1.27094697952,1.50890398026,6,"o","015"
"experiment",4,200,-0.777405473736,0.273952063603,9,0.1,6,8,"pairs","odd",0.606941223145,2.39035797119,6,"o","015"
"experiment",4,201,-0.165796974553,0.0486824442371,9,0.1,3,8,"pairs","odd",0.462918043137,2.54189896584,2,"o","015"
"experiment",3,202,-0.548985254893,0.380828834962,3,0.1,4,8,"pairs","even",0.774173021317,0.927715063095,2,"e","015"
"experiment",2,203,0.206653928166,0.221681261441,9,0.1,2,8,"pairs","even",0.878795146942,1.0747730732,2,"o","015"
"experiment",3,204,0.0745341029623,0.942783585748,7,0.1,4,0,"quadruplet","even",0.559031009674,0.769359111786,6,"e","015"
"experiment",4,205,-0.42849354195,-0.739762893489,9,0.1,6,0,"quadruplet","even",0.511019945145,0.549545049667,4,"e","015"
"experiment",3,206,0.930685539623,0.0731399739533,3,0.1,5,0,"quadruplet","odd",0.54293513298,0.582139015198,8,"o","015"
"experiment",2,207,-0.377343640245,-0.359457454325,7,0.1,1,0,"quadruplet","odd",0.766923189163,1.67162299156,2,"e","015"
"experiment",3,208,0.401476999792,-0.831568388743,9,0.1,3,0,"quadruplet","even",0.542955160141,1.30071806908,2,"e","015"
"experiment",1,209,-0.576326016479,0.348909580846,5,0.1,2,0,"quadruplet","even",0.541957139969,1.42603492737,4,"o","015"
"experiment",4,210,0.884051122208,-0.318607200182,5,0.1,5,0,"quadruplet","odd",0.534871101379,1.1517469883,2,"o","015"
"experiment",3,211,-0.939919893313,-0.0634667445033,3,0.1,3,0,"quadruplet","odd",0.390837907791,1.70916604996,4,"o","015"
"experiment",1,212,-0.654453563499,-0.933071200426,3,0.1,2,0,"quadruplet","odd",0.406851768494,1.42804408073,6,"e","015"
"experiment",1,213,0.72566803108,-0.362858477042,9,0.1,1,0,"quadruplet","odd",0.702807188034,1.39018297195,8,"o","015"
"experiment",3,214,0.594183587925,0.912772958151,7,0.1,6,0,"quadruplet","even",0.502031087875,0.872282028198,6,"e","015"
"experiment",3,215,-0.19792081128,0.90513225731,9,0.1,4,0,"quadruplet","even",0.582820892334,0.723392963409,2,"e","015"
"experiment",2,216,0.553403975026,0.710237269724,9,0.1,2,15,"singles","even",0.382928848267,1.49777507782,8,"e","015"
"experiment",3,217,0.312079989009,0.176657122103,9,0.1,1,15,"singles","odd",0.430834054947,0.715846061707,8,"o","015"
"experiment",3,218,0.789735598922,0.241777256007,9,0.1,4,15,"singles","even",0.462826967239,0.683844089508,8,"e","015"
"experiment",4,219,-0.755880605442,-0.492246705697,9,0.1,6,15,"singles","odd",0.398931980133,0.594372987747,8,"o","015"
"experiment",4,220,0.362778631722,-0.961227771972,9,0.1,5,15,"singles","even",1.43097114563,0.774740934372,8,"e","015"
"experiment",4,221,0.704546495353,-0.992893235256,9,0.1,3,15,"singles","odd",0.734968185425,0.30926990509,8,"o","015"
"experiment",4,222,0.694025893693,0.971278095495,9,0.1,6,15,"singles","odd",0.662966966629,0.164570093155,8,"o","015"
"experiment",3,223,-0.233546283853,-0.0466624548018,9,0.1,1,15,"singles","even",0.390944004059,1.11642813683,8,"o","015"
"experiment",4,224,-0.197656241573,-0.619941106728,9,0.1,3,15,"singles","odd",2.38312792778,0.163944005966,8,"o","015"
"experiment",4,225,0.251508015422,0.213358198852,9,0.1,4,15,"singles","odd",0.967159986496,0.0997180938721,8,"o","015"
"experiment",4,226,0.943188127196,-0.0818225097151,9,0.1,5,15,"singles","even",1.17407298088,0.761645078659,8,"e","015"
"experiment",2,227,-0.619564257438,-0.0906511708786,9,0.1,2,15,"singles","even",0.646816015244,0.532342910767,8,"o","015"
"experiment",3,228,-0.986153361902,-0.969255009454,9,0.1,2,0,"quadruplet","odd",0.294771194458,2.13326001167,4,"e","015"
"experiment",2,229,0.107540447649,0.692731527283,3,0.1,4,0,"quadruplet","even",0.638933897018,0.985116958618,4,"e","015"
"experiment",2,230,-0.535373448683,0.193144598529,7,0.1,3,0,"quadruplet","even",0.98305106163,0.983531951904,6,"e","015"
"experiment",4,231,0.688466223012,-0.309610923421,3,0.1,5,0,"quadruplet","odd",0.670871973038,0.638725996017,6,"o","015"
"experiment",2,232,0.58319651688,-0.273980805703,7,0.1,1,0,"quadruplet","even",0.454039096832,1.20761704445,8,"o","015"
"experiment",4,233,0.189829080806,-0.143400576679,5,0.1,6,0,"quadruplet","even",0.878952026367,0.780123949051,8,"e","015"
"experiment",3,234,0.383879596548,-0.170041901572,7,0.1,3,0,"quadruplet","odd",0.518743038177,1.16697788239,4,"e","015"
"experiment",4,235,0.0202745347189,0.672600008039,3,0.1,4,0,"quadruplet","odd",0.822885036469,0.44469499588,4,"o","015"
"experiment",2,236,0.987657348301,0.881945013138,7,0.1,2,0,"quadruplet","odd",0.750081062317,1.46537494659,8,"e","015"
"experiment",3,237,-0.479772550355,-0.71837340099,9,0.1,1,0,"quadruplet","odd",1.17497992516,0.860908985138,2,"o","015"
"experiment",4,238,0.964953451851,-0.752355947966,9,0.1,5,0,"quadruplet","even",0.77498292923,0.672034025192,4,"e","015"
"experiment",4,239,0.9246264745,0.220340458897,9,0.1,6,0,"quadruplet","even",0.302981138229,0.475481987,6,"e","015"
"experiment",4,240,0.11560436365,0.117332239641,9,0.1,4,22,"pairs","even",0.406950235367,0.835328102112,6,"e","015"
"experiment",2,241,0.864305235713,0.0929345582721,5,0.1,1,22,"pairs","odd",0.710276126862,1.4470911026,4,"e","015"
"experiment",4,242,0.0279278632804,-0.638232610252,9,0.1,6,22,"pairs","odd",2.19789195061,2.47450494766,6,"o","015"
"experiment",2,243,0.547747287674,-0.878291386122,5,0.1,3,22,"pairs","even",0.510851860046,1.05478191376,4,"o","015"
"experiment",2,244,-0.399667933547,-0.181976720069,9,0.1,2,22,"pairs","even",1.19890809059,1.57951402664,6,"o","015"
"experiment",4,245,0.931770141964,-0.660170771716,5,0.1,5,22,"pairs","odd",0.574851036072,0.696482896805,6,"o","015"
"experiment",4,246,0.010992953869,0.688252095269,9,0.1,6,22,"pairs","even",1.10303807259,0.50830411911,4,"e","015"
"experiment",4,247,0.761145950416,0.623446416091,9,0.1,5,22,"pairs","odd",0.445921897888,0.395892858505,6,"o","015"
"experiment",4,248,0.31460198868,-0.41618452879,9,0.1,4,22,"pairs","even",0.389851093292,0.900212049484,6,"e","015"
"experiment",2,249,0.502869481966,0.396648219268,5,0.1,1,22,"pairs","odd",0.862234115601,0.710633993149,4,"o","015"
"experiment",4,250,-0.725451234851,0.133805398061,5,0.1,3,22,"pairs","odd",0.590950965881,1.15393018723,6,"o","015"
"experiment",3,251,-0.28483696404,0.351130747859,9,0.1,2,22,"pairs","even",0.494809150696,1.53278017044,4,"e","015"
"experiment",3,252,0.395054873543,0.143687540561,9,0.1,6,0,"quadruplet","even",0.662830114365,0.91116809845,4,"e","015"
"experiment",4,253,-0.248500832664,0.203305108463,5,0.1,5,0,"quadruplet","odd",0.566993951797,0.285247087479,6,"o","015"
"experiment",4,254,-0.198291459506,-0.534073725549,5,0.1,4,0,"quadruplet","odd",1.01428985596,1.0987200737,8,"o","015"
"experiment",2,255,-0.0199442879358,0.687137957308,7,0.1,1,0,"quadruplet","even",0.542845010757,0.541954040527,4,"o","015"
"experiment",2,256,0.652096500315,0.268315854343,3,0.1,2,0,"quadruplet","odd",0.390867948532,0.783659934998,2,"o","015"
"experiment",2,257,-0.0163792539054,0.45469240751,9,0.1,3,0,"quadruplet","odd",0.982938051224,1.39069485664,4,"e","015"
"experiment",2,258,0.601881826954,-0.124800094054,7,0.1,2,0,"quadruplet","even",0.830970048904,1.5320789814,8,"o","015"
"experiment",1,259,0.295019012983,0.916525162477,7,0.1,1,0,"quadruplet","even",0.526913881302,2.31251597404,6,"e","015"
"experiment",4,260,0.0973320749646,0.566993112134,5,0.1,6,0,"quadruplet","even",0.350297927856,1.05410909653,8,"e","015"
"experiment",4,261,-0.616857085275,-0.0473204520156,3,0.1,5,0,"quadruplet","even",0.446963071823,0.541697978973,4,"e","015"
"experiment",4,262,0.401394621356,0.48798543364,3,0.1,3,0,"quadruplet","odd",0.199012041092,0.67848110199,2,"e","015"
"experiment",4,263,-0.242160868424,0.740182607851,9,0.1,4,0,"quadruplet","odd",0.422964096069,1.28370285034,4,"o","015"
"experiment",2,264,-0.239073347797,-0.353906734936,9,0.1,1,7,"singles","even",1.06299209595,1.69044494629,4,"o","015"
"experiment",4,265,-0.418431088751,0.589009022127,9,0.1,5,7,"singles","even",0.838892936707,0.438654184341,4,"e","015"
"experiment",4,266,-0.682333790098,-0.986445761731,9,0.1,4,7,"singles","odd",0.646323919296,0.347300052643,4,"o","015"
"experiment",2,267,-0.658124288336,0.542135652453,9,0.1,2,7,"singles","odd",0.4149081707,0.479588985443,4,"o","015"
"experiment",2,268,-0.110902227141,0.690211544855,9,0.1,3,7,"singles","even",1.34282612801,1.23440814018,4,"e","015"
"experiment",4,269,0.85314624789,-0.504673524954,9,0.1,6,7,"singles","odd",0.518269062042,0.304670810699,4,"o","015"
"experiment",2,270,-0.0193958054845,-0.692278948091,9,0.1,1,7,"singles","even",0.373735904694,1.36326289177,4,"o","015"
"experiment",4,271,0.583414462782,0.81781668199,9,0.1,6,7,"singles","odd",0.446978092194,0.167427778244,4,"o","015"
"experiment",2,272,-0.411264371204,-0.245641451202,9,0.1,3,7,"singles","even",0.622995853424,2.37652802467,4,"e","015"
"experiment",3,273,0.894836288645,0.188544623719,9,0.1,5,7,"singles","even",0.974827051163,0.739238023758,4,"e","015"
"experiment",4,274,0.247691365947,-0.182214407302,9,0.1,4,7,"singles","odd",0.638931035995,0.226017951965,4,"o","015"
"experiment",2,275,0.982825550927,0.475883001972,9,0.1,2,7,"singles","odd",0.478808879852,0.707530021667,4,"o","015"
"experiment",2,276,-0.460007541159,-0.797078009698,7,0.1,3,23,"pairs","even",0.414942979813,1.3502779007,4,"e","015"
"experiment",3,277,-0.57050120285,-0.783353132335,7,0.1,6,23,"pairs","even",0.542992115021,0.537775993347,4,"e","015"
"experiment",4,278,0.0213318536255,-0.191378684017,9,0.1,4,23,"pairs","odd",0.885988950729,0.602685928345,4,"o","015"
"experiment",2,279,-0.665305207173,-0.0228141989121,7,0.1,2,23,"pairs","odd",0.48575091362,1.34460806847,6,"o","015"
"experiment",2,280,0.0261229309642,0.290839520294,9,0.1,1,23,"pairs","even",0.661864042282,1.16735601425,6,"o","015"
"experiment",3,281,0.636937180147,0.704478053834,7,0.1,5,23,"pairs","odd",0.73484992981,0.776036977768,4,"o","015"
"experiment",3,282,0.508394504397,0.570716564464,7,0.1,3,23,"pairs","even",0.686866044998,0.376510858536,4,"o","015"
"experiment",2,283,0.16509578998,-0.0806016605971,7,0.1,1,23,"pairs","odd",0.583047866821,0.861516952515,6,"o","015"
"experiment",4,284,0.533504386204,0.0536183284026,9,0.1,4,23,"pairs","odd",0.614971876144,0.976444005966,6,"o","015"
"experiment",1,285,-0.676504000481,-0.313649141645,7,0.1,2,23,"pairs","odd",0.470316171646,1.17133307457,4,"e","015"
"experiment",3,286,0.104321771386,-0.0221637450035,9,0.1,6,23,"pairs","even",0.590843915939,0.744765996933,4,"e","015"
"experiment",4,287,-0.0415379908196,-0.259647810961,9,0.1,5,23,"pairs","even",0.494854927063,0.553128957748,6,"e","015"
"experiment",3,288,-0.354993566123,0.842755335941,5,0.1,5,13,"singles","even",0.479116916656,0.862691879272,8,"e","015"
"experiment",2,289,0.0191707262538,-0.34965315039,5,0.1,2,13,"singles","odd",0.462978124619,0.728678941727,8,"o","015"
"experiment",4,290,0.939466288245,0.295183935104,5,0.1,4,13,"singles","even",0.823095083237,0.716564893723,8,"e","015"
"experiment",2,291,-0.61128691807,0.478701072112,5,0.1,1,13,"singles","odd",0.478748083115,0.900646924973,8,"o","015"
"experiment",4,292,0.138605944305,-0.534439567339,5,0.1,6,13,"singles","even",0.238963842392,0.617316007614,8,"e","015"
"experiment",2,293,-0.0559687807619,0.825914365689,5,0.1,3,13,"singles","even",0.534854888916,0.940322160721,8,"e","015"
"experiment",3,294,-0.703221364138,-0.150743981576,5,0.1,4,13,"singles","odd",0.518812894821,0.477171897888,8,"o","015"
"experiment",4,295,0.409611966011,-0.965827524392,5,0.1,6,13,"singles","odd",0.503026008606,0.172387838364,8,"o","015"
"experiment",2,296,0.951297009255,0.407049356902,5,0.1,2,13,"singles","even",0.542350053787,0.800938844681,8,"o","015"
"experiment",2,297,0.573309008248,-0.0563280271419,5,0.1,1,13,"singles","odd",0.670320987701,1.86569690704,8,"e","015"
"experiment",1,298,-0.933505252771,0.664584173811,5,0.1,3,13,"singles","odd",0.214919090271,1.35866093636,8,"o","015"
"experiment",3,299,-0.290114106723,-0.994263696263,5,0.1,5,13,"singles","even",0.622796058655,0.70388507843,8,"e","015"
"experiment",3,300,0.102938111478,-0.478294481845,7,0.1,6,29,"pairs","even",0.286959171295,0.605068922043,8,"e","015"
"experiment",3,301,0.420755356199,0.309746035032,7,0.1,3,29,"pairs","odd",0.854984998703,0.438405990601,4,"o","015"
"experiment",2,302,-0.76817294245,-0.470522570205,9,0.1,2,29,"pairs","even",0.646372079849,0.937794923782,4,"e","015"
"experiment",1,303,0.872585011714,0.553017430721,7,0.1,4,29,"pairs","odd",0.646980047226,0.922757863998,8,"e","015"
"experiment",2,304,0.414859532774,0.0404064063795,9,0.1,1,29,"pairs","odd",1.32617998123,2.52787184715,8,"o","015"
"experiment",3,305,-0.891414406516,-0.0354990510304,7,0.1,5,29,"pairs","odd",0.638386011124,0.669270992279,8,"o","015"
"experiment",3,306,0.432378392414,-0.0480533665999,9,0.1,1,29,"pairs","even",0.446230888367,1.01587820053,4,"e","015"
"experiment",4,307,0.904100447146,0.768421376901,9,0.1,4,29,"pairs","even",0.470967054367,0.518517971039,8,"e","015"
"experiment",4,308,0.492719633906,0.0774897916861,9,0.1,5,29,"pairs","odd",0.510293960571,0.863837003708,4,"o","015"
"experiment",4,309,0.447660725911,0.754083574308,9,0.1,6,29,"pairs","odd",0.710785865784,0.583728075027,8,"o","015"
"experiment",3,310,-0.417712880069,0.0150355489872,7,0.1,2,29,"pairs","even",0.534944057465,0.881808996201,4,"e","015"
"experiment",3,311,-0.520335847911,-0.696246892323,9,0.1,3,29,"pairs","even",0.742187976837,0.630655050278,8,"o","015"
"experiment",3,312,0.497722402814,-0.340592166343,9,0.1,5,0,"quadruplet","odd",0.694850921631,0.342679023743,4,"o","015"
"experiment",3,313,0.776262516041,0.419901405588,9,0.1,4,0,"quadruplet","even",0.975033044815,1.05287981033,6,"e","015"
"experiment",2,314,0.661463885238,0.777962667594,7,0.1,1,0,"quadruplet","even",0.549895048141,1.66268396378,8,"e","015"
"experiment",2,315,-0.37639513318,0.484137998753,9,0.1,2,0,"quadruplet","odd",0.533934116364,0.884631872177,4,"e","015"
"experiment",2,316,0.598035422736,0.491364567763,7,0.1,3,0,"quadruplet","even",0.934875965118,2.03014206886,2,"o","015"
"experiment",3,317,-0.26001038358,-0.143175555274,3,0.1,6,0,"quadruplet","odd",0.542941808701,0.986647844315,2,"o","015"
"experiment",3,318,-0.146872150276,-0.0195920901745,7,0.1,4,0,"quadruplet","even",0.502219200134,0.982196092606,6,"e","015"
"experiment",3,319,-0.666016010959,-0.924741283718,9,0.1,1,0,"quadruplet","odd",0.509720087051,1.04194402695,8,"o","015"
"experiment",4,320,0.750854012509,0.379283138467,7,0.1,6,0,"quadruplet","even",0.854794025421,0.505054950714,2,"e","015"
"experiment",2,321,0.116754628598,-0.800411799896,7,0.1,2,0,"quadruplet","odd",0.58996796608,1.85316205025,8,"o","015"
"experiment",3,322,0.173326678445,-0.725194181203,5,0.1,3,0,"quadruplet","odd",1.00696992874,0.690813064575,6,"o","015"
"experiment",3,323,0.944610228345,0.435919003196,7,0.1,5,0,"quadruplet","even",2.26295304298,0.542675971985,2,"e","015"
"experiment",2,324,0.0103800675278,0.703824311292,3,0.1,4,26,"pairs","even",0.446968078613,1.02246308327,4,"e","015"
"experiment",4,325,0.372495326337,0.113476951261,9,0.1,6,26,"pairs","even",0.670144081116,1.01875686646,8,"e","015"
"experiment",2,326,-0.622761707768,0.211853247611,3,0.1,2,26,"pairs","odd",0.566915988922,0.880902051926,4,"o","015"
"experiment",2,327,0.521789530715,0.714005640283,9,0.1,3,26,"pairs","odd",0.381917953491,0.623504161835,8,"o","015"
"experiment",3,328,-0.779942058257,-0.0732019137591,9,0.1,5,26,"pairs","odd",0.750884056091,0.991391897202,4,"o","015"
"experiment",2,329,-0.825875177511,0.0858729860333,9,0.1,1,26,"pairs","even",0.406363010406,0.86408495903,8,"o","015"
"experiment",1,330,-0.49065308243,0.595254108249,9,0.1,3,26,"pairs","even",1.05401706696,1.75170898438,4,"o","015"
"experiment",3,331,0.721047179772,-0.786851730986,9,0.1,6,26,"pairs","odd",0.558860778809,0.585404157639,8,"o","015"
"experiment",3,332,0.661499487079,-0.0278835248162,9,0.1,4,26,"pairs","odd",0.510978937149,0.12753200531,4,"o","015"
"experiment",1,333,-0.0904727770614,-0.0390259413825,9,0.1,2,26,"pairs","even",1.34289383888,0.534454107285,4,"o","015"
"experiment",4,334,-0.343889020094,-0.106271930488,9,0.1,5,26,"pairs","odd",1.10295081139,0.117614030838,4,"o","015"
"experiment",1,335,0.721522575791,-0.386339194493,3,0.1,1,26,"pairs","even",0.478013038635,2.39935207367,4,"o","015"
"experiment",1,336,0.680188254924,-0.248520610816,9,0.1,2,0,"quadruplet","odd",0.326735973358,3.84020709991,8,"e","015"
"experiment",3,337,-0.780901870514,-0.736904986603,9,0.1,4,0,"quadruplet","even",0.575016975403,0.722460031509,4,"e","015"
"experiment",3,338,-0.467156242127,0.780945117765,5,0.1,5,0,"quadruplet","even",0.374392986298,0.539016008377,4,"e","015"
"experiment",4,339,0.579411280693,-0.515427170643,5,0.1,3,0,"quadruplet","odd",0.606884002686,0.254585981369,8,"o","015"
"experiment",2,340,-0.053436462078,0.0259545090012,7,0.1,1,0,"quadruplet","odd",0.541844844818,0.911961078644,2,"o","015"
"experiment",4,341,-0.988290917927,0.921112432526,3,0.1,6,0,"quadruplet","odd",0.502925872803,0.464101076126,8,"o","015"
"experiment",4,342,-0.761064618474,-0.673754431118,5,0.1,6,0,"quadruplet","even",0.318703174591,2.58640003204,4,"e","015"
"experiment",2,343,0.38660158444,-0.76200009883,9,0.1,2,0,"quadruplet","even",0.45485496521,0.896628141403,8,"o","015"
"experiment",2,344,0.958590599425,0.450762155492,7,0.1,3,0,"quadruplet","odd",1.5263569355,0.665560007095,8,"o","015"
"experiment",1,345,0.980549310739,-0.852311521238,7,0.1,1,0,"quadruplet","odd",0.294883012772,1.37923288345,8,"e","015"
"experiment",2,346,0.432463165846,0.577180547047,5,0.1,4,0,"quadruplet","even",1.17487597466,1.22027611732,6,"e","015"
"experiment",3,347,0.288094510882,0.277268978827,3,0.1,5,0,"quadruplet","even",0.374832868576,0.783550024033,2,"e","015"
"experiment",4,348,0.876541574556,-0.687065311595,3,0.1,4,12,"singles","odd",0.871037960052,0.837158918381,8,"o","015"
"experiment",4,349,0.475661925908,0.687205623306,3,0.1,3,12,"singles","odd",0.622889995575,1.15313482285,8,"o","015"
"experiment",2,350,-0.873162537819,0.968515015406,3,0.1,1,12,"singles","even",0.622818946838,1.47505688667,8,"o","015"
"experiment",1,351,0.61289674437,0.852240614436,3,0.1,2,12,"singles","even",0.214879989624,1.8644900322,8,"o","015"
"experiment",3,352,-0.731759108209,-0.720458595507,3,0.1,6,12,"singles","even",0.486908912659,0.930788993835,8,"e","015"
"experiment",4,353,-0.537635207906,0.297105263147,3,0.1,5,12,"singles","even",0.398893117905,1.14148712158,8,"e","015"
"experiment",2,354,-0.821086451962,-0.0948335199709,3,0.1,2,12,"singles","odd",0.974376916885,1.6244289875,8,"e","015"
"experiment",4,355,0.758783643679,-0.22561234019,3,0.1,6,12,"singles","odd",1.43890810013,1.05208182335,8,"o","015"
"experiment",4,356,-0.231084586284,0.833290852372,3,0.1,4,12,"singles","even",0.502348899841,0.765208005905,8,"e","015"
"experiment",3,357,0.738542040385,0.696297201639,3,0.1,3,12,"singles","even",0.51892209053,1.37194299698,8,"e","015"
"experiment",4,358,0.195911306398,0.35887563024,3,0.1,5,12,"singles","odd",1.14283514023,0.790535926819,8,"o","015"
"experiment",1,359,-0.127461134102,0.215130500643,3,0.1,1,12,"singles","odd",1.19103598595,0.566067934036,8,"o","015"
"experiment",3,360,-0.640195864515,-0.255207078655,5,0.1,3,0,"quadruplet","even",0.334788799286,2.5818529129,2,"e","015"
"experiment",2,361,-0.727380889902,0.441266415823,5,0.1,1,0,"quadruplet","odd",0.486826181412,1.68180084229,6,"o","015"
"experiment",3,362,-0.289831742956,-0.496286062196,5,0.1,4,0,"quadruplet","even",0.70298910141,0.571530103683,2,"e","015"
"experiment",2,363,0.00386985589855,0.918075496341,7,0.1,2,0,"quadruplet","odd",0.639046192169,0.801674842834,8,"o","015"
"experiment",4,364,0.58882410704,0.595749840307,5,0.1,6,0,"quadruplet","even",0.358926057816,0.636431932449,6,"e","015"
"experiment",4,365,0.739884143918,0.820314689696,9,0.1,5,0,"quadruplet","odd",1.09485602379,0.677673101425,6,"o","015"
"experiment",2,366,0.178346809851,-0.497255399356,3,0.1,1,0,"quadruplet","odd",0.558115005493,0.911170959473,2,"e","015"
"experiment",3,367,0.276838566426,0.694941576985,5,0.1,3,0,"quadruplet","even",0.550893068314,0.856531143188,8,"e","015"
"experiment",4,368,-0.498427810487,0.112537741977,3,0.1,4,0,"quadruplet","even",0.254314899445,0.729823112488,6,"e","015"
"experiment",4,369,-0.721042037432,0.383430059153,3,0.1,5,0,"quadruplet","odd",0.590965986252,0.553795099258,2,"o","015"
"experiment",4,370,-0.849214409381,-0.512093290573,3,0.1,6,0,"quadruplet","even",0.335008859634,1.01508593559,8,"e","015"
"experiment",1,371,0.581115050991,-0.48542148715,5,0.1,2,0,"quadruplet","odd",0.358290910721,0.898549079895,2,"o","015"
"experiment",4,372,-0.0101626384905,-0.145150547802,5,0.1,3,0,"pairs","even",0.238916158676,1.75420689583,4,"e","015"
"experiment",3,373,-0.74629361551,0.876999334301,3,0.1,4,0,"pairs","even",0.24681687355,0.828392028809,4,"e","015"
"experiment",4,374,0.236668751682,0.173244775486,5,0.1,5,0,"pairs","odd",0.214985132217,0.679598093033,2,"o","015"
"experiment",4,375,0.132788501285,0.748712082313,5,0.1,1,0,"pairs","odd",0.430972099304,1.07669401169,4,"o","015"
"experiment",4,376,-0.334530004259,-0.0283384218673,3,0.1,6,0,"pairs","even",0.430950164795,1.25782084465,4,"e","015"
"experiment",2,377,-0.442792451133,-0.371726136461,5,0.1,2,0,"pairs","even",0.350605010986,1.09781002998,2,"o","015"
"experiment",3,378,-0.220024765403,-0.18985181908,5,0.1,4,0,"pairs","odd",0.974869966507,0.30205488205,4,"o","015"
"experiment",4,379,-0.191963262933,-0.197972893773,3,0.1,5,0,"pairs","odd",0.559020042419,0.272849798203,4,"o","015"
"experiment",3,380,-0.151203901761,-0.0357475838236,5,0.1,3,0,"pairs","even",0.342843055725,1.22980880737,4,"e","015"
"experiment",2,381,0.00962892058174,0.102916082001,3,0.1,2,0,"pairs","even",3.23003602028,0.481555938721,2,"o","015"
"experiment",4,382,-0.523653375918,-0.244601623063,5,0.1,6,0,"pairs","odd",0.503049135208,0.42732000351,2,"o","015"
"experiment",3,383,-0.62867151884,-0.284956045296,5,0.1,1,0,"pairs","odd",0.886170864105,0.894133806229,2,"o","015"
"experiment",1,384,-0.749240744349,-0.0833622212657,9,0.1,1,3,"singles","even",0.462968111038,1.59876298904,2,"e","015"
"experiment",3,385,0.213804958869,-0.46137216892,9,0.1,2,3,"singles","odd",1.99097490311,2.00207090378,2,"o","015"
"experiment",3,386,0.201052315763,0.953859198185,9,0.1,3,3,"singles","odd",0.454962015152,0.970950126648,2,"o","015"
"experiment",2,387,-0.385028188262,0.190051327557,9,0.1,4,3,"singles","even",0.798365116119,1.22786593437,2,"o","015"
"experiment",4,388,0.974187403635,-0.73452987569,9,0.1,5,3,"singles","odd",1.75886702538,0.650953054428,2,"o","015"
"experiment",4,389,-0.159130418823,-0.356723718983,9,0.1,6,3,"singles","even",0.597905874252,0.676091909409,2,"e","015"
"experiment",4,390,0.136034508448,0.748204154785,9,0.1,6,3,"singles","even",0.59099316597,0.580567836761,2,"e","015"
"experiment",4,391,-0.609700981093,-0.944678654985,9,0.1,5,3,"singles","odd",0.390848875046,0.423866033554,2,"o","015"
"experiment",3,392,-0.567974368743,0.107472599773,9,0.1,3,3,"singles","odd",0.605794906616,0.337399959564,2,"o","015"
"experiment",1,393,0.200189160826,-0.42861822132,9,0.1,1,3,"singles","even",0.45480799675,2.14162182808,2,"e","015"
"experiment",4,394,-0.806843052161,0.36825719522,9,0.1,4,3,"singles","odd",0.582272052765,0.747680187225,2,"o","015"
"experiment",2,395,-0.31203465315,-0.443600649472,9,0.1,2,3,"singles","even",0.782001018524,1.08121609688,2,"o","015"
"experiment",3,396,-0.0591103270366,-0.25777756166,3,0.1,5,0,"quadruplet","even",0.910804033279,1.09609508514,2,"e","015"
"experiment",4,397,0.607679859386,0.540853121225,7,0.1,6,0,"quadruplet","odd",0.542334079742,0.396646976471,2,"o","015"
"experiment",2,398,-0.790304644642,0.137844632973,9,0.1,1,0,"quadruplet","odd",0.718752861023,1.25233983994,6,"e","015"
"experiment",3,399,-0.532096721011,0.537358104336,3,0.1,2,0,"quadruplet","even",0.822829961777,0.977743148804,4,"o","015"
"experiment",2,400,-0.00373455042919,-0.546437965541,9,0.1,3,0,"quadruplet","even",0.447005987167,1.80911207199,6,"o","015"
"experiment",3,401,-0.330706599177,-0.26534296342,7,0.1,4,0,"quadruplet","odd",0.574882984161,0.952542066574,6,"o","015"
"experiment",3,402,-0.296605513862,0.24382984743,3,0.1,6,0,"quadruplet","even",0.447007894516,0.507304906845,4,"e","015"
"experiment",4,403,-0.247200923953,0.145867187429,9,0.1,5,0,"quadruplet","odd",0.558984994888,0.191956043243,6,"o","015"
"experiment",4,404,-0.344966820037,-0.15444586172,5,0.1,4,0,"quadruplet","odd",0.502357006073,0.411459922791,2,"o","015"
"experiment",4,405,-0.739172935376,0.505079478675,5,0.1,1,0,"quadruplet","odd",0.462852954865,0.561725139618,8,"o","015"
"experiment",2,406,-0.167756599087,0.902298121274,7,0.1,2,0,"quadruplet","even",1.0309510231,0.959699869156,6,"e","015"
"experiment",3,407,-0.10697942308,-0.454028169806,5,0.1,3,0,"quadruplet","even",0.398948907852,0.679519176483,8,"e","015"
"experiment",3,408,0.673670328461,-0.152924422021,9,0.1,6,4,"pairs","even",0.286971092224,0.604005098343,4,"e","015"
"experiment",4,409,0.477928878871,0.237135353168,5,0.1,3,4,"pairs","odd",0.34296298027,1.17091202736,4,"e","015"
"experiment",3,410,-0.717230200523,-0.622264566536,5,0.1,4,4,"pairs","even",0.238270044327,0.434323072433,4,"e","015"
"experiment",2,411,-0.600930184585,-0.840397869274,9,0.1,2,4,"pairs","odd",0.863131999969,1.17624115944,2,"o","015"
"experiment",4,412,-0.0959994187583,-0.672325233485,9,0.1,5,4,"pairs","even",0.510996103287,0.453509092331,4,"e","015"
"experiment",3,413,-0.0767350514101,-0.30829189953,9,0.1,1,4,"pairs","even",0.70294213295,0.961241960526,4,"e","015"
"experiment",3,414,-0.365429231978,0.848076729199,9,0.1,2,4,"pairs","odd",0.750205039978,0.419233083725,4,"o","015"
"experiment",4,415,-0.773466856189,-0.0666432812159,5,0.1,5,4,"pairs","odd",0.510997056961,0.385277986526,2,"o","015"
"experiment",2,416,0.116302745688,0.547342066299,5,0.1,3,4,"pairs","odd",0.710284233093,0.362643957138,4,"o","015"
"experiment",1,417,-0.783569884978,-0.567082534364,9,0.1,1,4,"pairs","odd",1.23098111153,1.05322790146,2,"o","015"
"experiment",4,418,0.593130526952,0.914804973423,5,0.1,6,4,"pairs","even",0.942867994308,0.575676202774,4,"e","015"
"experiment",4,419,-0.170747403231,-0.405292439424,9,0.1,4,4,"pairs","even",0.52694606781,0.503921031952,2,"e","015"
"experiment",3,420,0.337369528391,-0.00725166555859,7,0.1,2,14,"singles","odd",0.638906002045,1.15352582932,8,"o","015"
"experiment",4,421,-0.807310926584,0.238682342239,7,0.1,6,14,"singles","even",0.454083919525,0.505073070526,8,"e","015"
"experiment",4,422,0.894231285579,-0.294369264437,7,0.1,4,14,"singles","odd",0.478965997696,0.356100082397,8,"o","015"
"experiment",3,423,0.527066010997,0.294206518699,7,0.1,3,14,"singles","even",1.75806808472,1.70251107216,8,"o","015"
"experiment",1,424,0.147604356493,-0.642188001626,7,0.1,1,14,"singles","even",0.486713886261,1.38703298569,8,"o","015"
"experiment",3,425,-0.60350268201,-0.87097672956,7,0.1,5,14,"singles","odd",0.870978116989,0.390417098999,8,"o","015"
"experiment",3,426,0.273121361267,-0.747510158279,7,0.1,1,14,"singles","even",0.422949075699,0.348938941956,8,"o","015"
"experiment",4,427,-0.0923842627162,0.29957755583,7,0.1,5,14,"singles","odd",0.582942008972,0.130283117294,8,"o","015"
"experiment",4,428,0.461359008482,-0.126648726737,7,0.1,6,14,"singles","odd",0.430943965912,0.203772068024,8,"o","015"
"experiment",2,429,0.064784551414,0.808950053019,7,0.1,2,14,"singles","odd",1.67834997177,0.165961027145,8,"o","015"
"experiment",3,430,0.47608212056,-0.798181820966,7,0.1,4,14,"singles","even",0.470303058624,0.738148927689,8,"e","015"
"experiment",4,431,0.178649256384,-0.0768056316884,7,0.1,3,14,"singles","even",0.357901096344,0.533804893494,8,"e","015"
"experiment",3,432,-0.482818456287,-0.810954758299,7,0.1,5,31,"pairs","odd",0.46298789978,0.57518196106,6,"o","015"
"experiment",2,433,-0.156632478231,0.825638963472,3,0.1,3,31,"pairs","even",0.942992925644,0.451677083969,6,"o","015"
"experiment",2,434,0.317170521556,0.489935570362,3,0.1,4,31,"pairs","odd",0.431010961533,0.643092155457,8,"e","015"
"experiment",2,435,-0.254257529168,0.286740827427,7,0.1,2,31,"pairs","even",0.318876028061,0.902273893356,8,"e","015"
"experiment",3,436,-0.664819694498,0.898086228956,7,0.1,1,31,"pairs","even",0.406892061234,1.04667901993,6,"o","015"
"experiment",4,437,0.698349852342,-0.302595076439,3,0.1,6,31,"pairs","odd",1.29485297203,0.539117097855,8,"o","015"
"experiment",2,438,-0.530513519498,0.297124343052,3,0.1,2,31,"pairs","odd",0.501927137375,0.972046852112,6,"o","015"
"experiment",3,439,-0.558800692909,0.977603016531,3,0.1,5,31,"pairs","even",0.534282922745,0.542734146118,6,"e","015"
"experiment",4,440,0.689841227814,0.77878807314,3,0.1,6,31,"pairs","odd",0.390151977539,0.671538114548,6,"o","015"
"experiment",2,441,-0.110546901072,-0.550712311099,7,0.1,1,31,"pairs","even",0.894237995148,0.887086868286,6,"o","015"
"experiment",3,442,0.8843250968,-0.168984075791,3,0.1,3,31,"pairs","even",0.589862108231,1.3528649807,8,"e","015"
"experiment",3,443,-0.407907456093,0.515563225323,7,0.1,4,31,"pairs","odd",0.654991865158,0.411844968796,8,"o","015"
"experiment",3,444,-0.590504984552,0.0352164403939,3,0.1,6,4,"singles","even",0.350707054138,0.668892860413,4,"e","015"
"experiment",3,445,-0.20828758818,-0.103427984152,3,0.1,1,4,"singles","odd",0.774811029434,0.551923036575,4,"o","015"
"experiment",3,446,0.706740957393,-0.17749226145,3,0.1,2,4,"singles","odd",0.446352005005,0.187433004379,4,"o","015"
"experiment",4,447,0.7156283517,-0.915141253199,3,0.1,4,4,"singles","even",0.622939109802,0.487350940704,4,"e","015"
"experiment",4,448,0.838775891368,0.619454270807,3,0.1,5,4,"singles","odd",0.470793008804,0.219831943512,4,"o","015"
"experiment",4,449,0.454455834813,-0.223786202582,3,0.1,3,4,"singles","even",0.414077043533,0.877238988876,4,"e","015"
"experiment",4,450,-0.865042796307,-0.258402491118,3,0.1,6,4,"singles","even",0.278243780136,0.347503900528,4,"e","015"
"experiment",4,451,0.0942238932685,0.766293496268,3,0.1,4,4,"singles","odd",0.566986083984,0.160456180573,4,"o","015"
"experiment",2,452,0.0905985379068,-0.565993605185,3,0.1,2,4,"singles","even",0.422961950302,1.19230079651,4,"o","015"
"experiment",3,453,-0.895035943948,-0.0189391855132,3,0.1,3,4,"singles","odd",0.526973009109,0.32736992836,4,"o","015"
"experiment",2,454,-0.48116115243,-0.814896644369,3,0.1,1,4,"singles","even",0.718815088272,0.332818031311,4,"o","015"
"experiment",3,455,-0.244425491139,0.997288732465,3,0.1,5,4,"singles","odd",0.614981889725,0.220161914825,4,"o","015"
"experiment",2,456,-0.763398939927,-0.565946617814,9,0.1,2,0,"quadruplet","even",0.670953035355,1.82851886749,4,"e","015"
"experiment",4,457,-0.112749602269,-0.996036094339,5,0.1,6,0,"quadruplet","odd",0.46964597702,0.213939189911,6,"o","015"
"experiment",4,458,0.809657276099,0.563499143302,3,0.1,3,0,"quadruplet","even",0.830852985382,0.311547040939,6,"o","015"
"experiment",4,459,0.70379127301,0.939867834449,5,0.1,5,0,"quadruplet","odd",1.47899985313,0.25541305542,6,"o","015"
"experiment",2,460,0.751687103197,0.522486398568,9,0.1,1,0,"quadruplet","even",0.662960767746,0.780865192413,2,"e","015"
"experiment",3,461,-0.495749812686,0.0809995170733,3,0.1,4,0,"quadruplet","even",0.429887056351,0.730040073395,2,"e","015"
"experiment",2,462,-0.24361567632,-0.909749041965,7,0.1,2,0,"quadruplet","odd",0.710165977478,1.03310394287,8,"o","015"
"experiment",4,463,0.31004386895,0.858952288316,7,0.1,6,0,"quadruplet","odd",0.510683059692,0.393049955368,8,"o","015"
"experiment",4,464,0.31191694749,-0.567571009718,3,0.1,5,0,"quadruplet","odd",0.510339021683,0.178327083588,4,"o","015"
"experiment",2,465,0.984760619977,0.930067399442,7,0.1,1,0,"quadruplet","odd",0.655076026917,0.215175867081,4,"o","015"
"experiment",3,466,0.668783776393,-0.359637703352,3,0.1,3,0,"quadruplet","even",0.550797939301,0.648909091949,2,"e","015"
"experiment",4,467,0.24729778657,-0.694177810758,3,0.1,4,0,"quadruplet","even",0.286973953247,0.489964962006,6,"e","015"
"experiment",2,468,-0.478153742094,0.415009922323,7,0.1,1,13,"pairs","even",0.35882806778,1.16634392738,8,"o","015"
"experiment",3,469,0.779648437212,0.440298218791,7,0.1,4,13,"pairs","odd",0.487020969391,0.41014289856,2,"o","015"
"experiment",4,470,-0.901127831748,0.471276654223,3,0.1,5,13,"pairs","even",0.47905087471,1.16668391228,8,"e","015"
"experiment",3,471,0.827268729476,0.109245231605,7,0.1,3,13,"pairs","odd",0.605977058411,0.315392971039,2,"o","015"
"experiment",3,472,-0.134145155196,0.476324099494,3,0.1,6,13,"pairs","odd",0.397862911224,0.560417175293,8,"o","015"
"experiment",2,473,-0.749348245455,0.207878278484,3,0.1,2,13,"pairs","even",0.430830955505,0.747518062592,8,"o","015"
"experiment",2,474,-0.577615145917,0.901790726265,3,0.1,1,13,"pairs","even",0.902848958969,0.503587007523,2,"o","015"
"experiment",4,475,0.825837760484,0.911577170978,7,0.1,5,13,"pairs","odd",0.55793094635,0.844770908356,8,"o","015"
"experiment",4,476,-0.256330298138,-0.592255074979,3,0.1,4,13,"pairs","odd",0.598499059677,0.158674001694,8,"o","015"
"experiment",3,477,-0.639977393981,-0.496045327872,7,0.1,3,13,"pairs","even",0.662984132767,0.733241081238,8,"e","015"
"experiment",4,478,0.551097185473,0.193525936331,3,0.1,6,13,"pairs","odd",0.614826917648,0.163894891739,8,"o","015"
"experiment",1,479,-0.257153926327,-0.477445483909,7,0.1,2,13,"pairs","even",0.398907899857,1.24539399147,8,"o","015"
"experiment",2,480,0.981789143771,-0.21378210559,3,0.1,1,0,"quadruplet","even",0.4947681427,2.4283618927,8,"e","015"
"experiment",4,481,0.188703580199,0.391943356567,9,0.1,6,0,"quadruplet","odd",0.518849849701,0.70582985878,6,"o","015"
"experiment",3,482,0.0708908917417,-0.449435345076,9,0.1,2,0,"quadruplet","odd",0.590121984482,1.61391592026,4,"o","015"
"experiment",3,483,0.24215220447,0.485651179263,7,0.1,3,0,"quadruplet","even",1.03094100952,0.585952043533,4,"o","015"
"experiment",4,484,-0.92933459369,-0.114036539567,5,0.1,5,0,"quadruplet","odd",0.903015851974,0.272479057312,2,"o","015"
"experiment",1,485,-0.254269927038,-0.627046707725,3,0.1,4,0,"quadruplet","even",1.77503108978,0.20511007309,2,"o","015"
"experiment",3,486,0.76725928217,-0.126268155944,7,0.1,6,0,"quadruplet","even",0.470901966095,0.465717077255,4,"e","015"
"experiment",2,487,-0.312465581856,-0.391776261978,7,0.1,1,0,"quadruplet","odd",0.422774076462,0.926337003708,4,"e","015"
"experiment",3,488,-0.580028508243,-0.597244970811,7,0.1,5,0,"quadruplet","odd",0.478869199753,0.340004920959,8,"o","015"
"experiment",4,489,0.579721134255,-0.391158236748,5,0.1,3,0,"quadruplet","even",0.742840051651,0.605206012726,2,"e","015"
"experiment",2,490,-0.530551549255,-0.287497865855,7,0.1,2,0,"quadruplet","even",0.581821918488,0.822373151779,4,"e","015"
"experiment",4,491,-0.473677904227,0.890252380018,7,0.1,4,0,"quadruplet","odd",0.542947053909,0.283570051193,2,"o","015"
"experiment",4,492,0.61768578011,-0.80971819685,9,0.1,4,11,"singles","even",0.31085395813,0.561332941055,6,"e","015"
"experiment",4,493,0.0253260026575,0.29054048623,9,0.1,1,11,"singles","odd",0.238163948059,0.506759881973,6,"o","015"
"experiment",4,494,-0.382711111607,0.0981884323535,9,0.1,6,11,"singles","odd",0.414917945862,0.146993875504,6,"o","015"
"experiment",2,495,0.332328063291,-0.398752916192,9,0.1,2,11,"singles","even",0.557893037796,1.13606405258,6,"e","015"
"experiment",4,496,0.220715434583,0.183704208445,9,0.1,5,11,"singles","even",0.326967000961,0.471675157547,6,"e","015"
"experiment",2,497,-0.0392355101743,-0.761093531695,9,0.1,3,11,"singles","odd",0.358962059021,0.802928924561,6,"o","015"
"experiment",1,498,0.582276134735,0.544375232083,9,0.1,1,11,"singles","odd",0.399003982544,0.362258911133,6,"o","015"
"experiment",3,499,-0.865751959021,0.716593848921,9,0.1,3,11,"singles","even",0.238718032837,0.902046203613,6,"e","015"
"experiment",4,500,0.621916664927,0.135862167499,9,0.1,4,11,"singles","even",0.23092508316,0.461911916733,6,"e","015"
"experiment",4,501,0.603862607729,-0.0185774084652,9,0.1,5,11,"singles","odd",0.294850111008,0.154958963394,6,"o","015"
"experiment",4,502,0.17019618354,-0.835669966254,9,0.1,6,11,"singles","odd",0.279093980789,0.0765309333801,6,"o","015"
"experiment",2,503,0.589696727421,-0.437691407634,9,0.1,2,11,"singles","even",0.374845981598,0.969169139862,6,"o","015"
"experiment",2,504,-0.352982408786,-0.705723091665,9,0.1,1,0,"quadruplet","even",0.310950040817,1.79808998108,6,"e","015"
"experiment",3,505,0.876730851889,0.522432663408,3,0.1,4,0,"quadruplet","odd",0.374708890915,0.47191286087,8,"o","015"
"experiment",4,506,-0.138676419114,0.726583293172,9,0.1,6,0,"quadruplet","even",0.406909942627,1.4673500061,4,"e","015"
"experiment",2,507,-0.109170368148,-0.798917428824,5,0.1,2,0,"quadruplet","odd",0.342973947525,0.607283830643,4,"e","015"
"experiment",3,508,-0.165964076329,-0.882511558433,9,0.1,3,0,"quadruplet","even",0.566922187805,0.432452917099,4,"o","015"
"experiment",4,509,0.74204648801,-0.991062049817,9,0.1,5,0,"quadruplet","odd",0.439013004303,0.423398971558,8,"o","015"
"experiment",4,510,-0.0190423188031,0.519588821931,5,0.1,5,0,"quadruplet","odd",0.319011211395,0.344206094742,4,"o","015"
"experiment",3,511,0.321993645775,-0.360204062207,7,0.1,1,0,"quadruplet","even",0.429955005646,0.788567066193,2,"o","015"
"experiment",4,512,0.839121432597,-0.741948813379,7,0.1,4,0,"quadruplet","even",0.669787883759,0.626579046249,8,"e","015"
"experiment",2,513,-0.301111210313,-0.930472837535,9,0.1,2,0,"quadruplet","even",0.429915904999,1.24965500832,2,"e","015"
"experiment",2,514,-0.0329757537875,0.285992730354,7,0.1,3,0,"quadruplet","odd",0.686713933945,0.782358884811,8,"e","015"
"experiment",4,515,-0.888516464484,-0.791079981136,7,0.1,6,0,"quadruplet","odd",0.686325073242,0.859609127045,6,"o","015"
"experiment",2,516,0.110172211033,0.0421899288448,5,0.1,1,1,"singles","odd",0.398948192596,1.14315414429,2,"e","015"
"experiment",2,517,-0.602553200449,0.63364606035,5,0.1,6,1,"singles","even",0.382859945297,1.16442203522,2,"e","015"
"experiment",4,518,-0.329384151222,0.0753494304806,5,0.1,4,1,"singles","odd",0.478959083557,0.225966930389,2,"o","015"
"experiment",3,519,-0.29799305816,-0.166269689867,5,0.1,2,1,"singles","even",0.519023895264,0.350377082825,2,"o","015"
"experiment",3,520,0.811814389256,-0.168082672617,5,0.1,5,1,"singles","even",0.575021028519,0.488252162933,2,"e","015"
"experiment",3,521,0.863476139908,0.829447705301,5,0.1,3,1,"singles","even",1.30224895477,0.40637087822,2,"o","015"
"experiment",2,522,0.985081706701,0.543598755169,5,0.1,2,1,"singles","odd",0.471003055573,0.787990093231,2,"e","015"
"experiment",3,523,0.652574643745,0.525656170999,5,0.1,3,1,"singles","odd",0.734873056412,0.413235187531,2,"o","015"
"experiment",4,524,0.146134806774,0.370648403745,5,0.1,4,1,"singles","even",0.294883012772,0.622107982635,2,"e","015"
"experiment",4,525,-0.0450877165155,0.221714056293,5,0.1,6,1,"singles","even",0.270759105682,0.379095077515,2,"e","015"
"experiment",4,526,0.372908955646,0.652559652678,5,0.1,5,1,"singles","odd",0.358963012695,0.23904299736,2,"o","015"
"experiment",2,527,0.530557590772,0.387366177726,5,0.1,1,1,"singles","odd",0.446177959442,1.15075016022,2,"o","015"
"experiment",2,528,0.0851352909602,-0.780231684442,3,0.1,4,1,"pairs","even",1.22300004959,1.05906009674,4,"o","015"
"experiment",2,529,0.319184576396,0.220879159611,7,0.1,5,1,"pairs","even",0.326184988022,0.401489019394,4,"e","015"
"experiment",2,530,-0.460977934824,0.207903041007,7,0.1,1,1,"pairs","odd",0.726897954941,2.04124307632,2,"o","015"
"experiment",2,531,-0.441081439099,-0.520332515101,3,0.1,3,1,"pairs","odd",0.43893289566,0.876296043396,2,"o","015"
"experiment",2,532,-0.0147769422395,-0.55107955795,7,0.1,2,1,"pairs","even",0.390786170959,1.46261906624,2,"e","015"
"experiment",3,533,0.389540013116,-0.0655240265155,3,0.1,6,1,"pairs","odd",0.685924053192,0.363694906235,4,"o","015"
"experiment",4,534,0.972571440231,-0.701394566972,7,0.1,6,1,"pairs","odd",0.509826898575,0.203709840775,2,"o","015"
"experiment",3,535,-0.809578749163,0.0799005455354,7,0.1,1,1,"pairs","even",0.271003007889,0.623643159866,2,"o","015"
"experiment",3,536,-0.955861921693,-0.851319670035,3,0.1,3,1,"pairs","even",0.502909898758,1.17372512817,4,"e","015"
"experiment",4,537,-0.704809654499,0.904779749331,7,0.1,4,1,"pairs","odd",0.542887926102,0.567115068436,4,"o","015"
"experiment",4,538,-0.0664461133283,-0.683798980156,3,0.1,5,1,"pairs","odd",0.846987962723,0.517117023468,4,"o","015"
"experiment",2,539,0.336083734279,-0.824031091817,3,0.1,2,1,"pairs","even",0.453881978989,1.12895298004,2,"e","015"
"experiment",1,540,-0.62323282918,-0.424498443529,7,0.1,1,0,"quadruplet","even",0.278969049454,1.58074188232,8,"e","015"
"experiment",2,541,0.320954177452,0.669850638364,9,0.1,3,0,"quadruplet","odd",0.367020845413,0.68213891983,6,"o","015"
"experiment",3,542,0.866845442257,0.469440119731,9,0.1,5,0,"quadruplet","even",0.374849081039,0.871504068375,4,"e","015"
"experiment",3,543,0.037192401315,0.334640546814,5,0.1,6,0,"quadruplet","odd",0.71900510788,0.163931131363,4,"o","015"
"experiment",4,544,0.57601850028,-0.441817643317,5,0.1,4,0,"quadruplet","odd",0.679005861282,1.24123811722,8,"o","015"
"experiment",3,545,0.120922559944,-0.884574462155,5,0.1,2,0,"quadruplet","odd",0.614856958389,1.17000102997,4,"o","015"
"experiment",2,546,-0.239701766186,-0.128490201237,7,0.1,3,0,"quadruplet","even",2.13420581818,0.360110998154,2,"o","015"
"experiment",1,547,0.632613878998,0.107523365993,3,0.1,2,0,"quadruplet","even",0.694979190826,0.903182029724,8,"e","015"
"experiment",3,548,-0.722095623642,-0.108994997768,7,0.1,5,0,"quadruplet","odd",0.62992310524,0.443029165268,6,"o","015"
"experiment",4,549,0.775985606622,0.112828307007,5,0.1,6,0,"quadruplet","odd",0.525985002518,0.212862968445,8,"o","015"
"experiment",2,550,0.724902769412,-0.724617310493,3,0.1,4,0,"quadruplet","even",1.97496700287,0.350780963898,8,"o","015"
"experiment",1,551,-0.224923527426,-0.169870309224,9,0.1,1,0,"quadruplet","even",2.39818000793,0.831640005112,6,"o","015"
"experiment",3,552,0.817660278915,-0.316270566155,7,0.1,3,10,"singles","odd",0.734998941422,0.527122020721,6,"o","015"
"experiment",3,553,-0.625408183386,-0.452605335339,7,0.1,4,10,"singles","even",0.286034107208,0.481558084488,6,"e","015"
"experiment",4,554,-0.597399637771,0.560839581938,7,0.1,5,10,"singles","odd",0.270925045013,0.654287815094,6,"o","015"
"experiment",4,555,-0.161540229933,-0.616125883155,7,0.1,6,10,"singles","even",0.558794975281,0.138164997101,6,"e","015"
"experiment",3,556,-0.169720982642,0.902015800219,7,0.1,2,10,"singles","odd",0.655174970627,0.108714103699,6,"o","015"
"experiment",2,557,0.716214951466,-0.936057119851,7,0.1,1,10,"singles","odd",0.47896695137,0.172898054123,6,"o","015"
"experiment",3,558,0.0911256029761,-0.937032421256,7,0.1,3,10,"singles","even",0.430928945541,0.39239692688,6,"e","015"
"experiment",4,559,-0.672516340607,-0.857315804616,7,0.1,6,10,"singles","even",0.4468729496,0.237773180008,6,"e","015"
"experiment",4,560,0.653515737791,0.76735669249,7,0.1,4,10,"singles","even",0.286942958832,0.265475034714,6,"e","015"
"experiment",4,561,0.650811935963,-0.386177325465,7,0.1,5,10,"singles","odd",1.07905197144,0.341855049133,6,"o","015"
"experiment",2,562,-0.941975804258,0.981572926465,7,0.1,1,10,"singles","odd",0.581912994385,0.829430103302,6,"o","015"
"experiment",2,563,0.324829200593,-0.0756642583157,7,0.1,2,10,"singles","even",0.57489991188,0.562881946564,6,"o","015"
"experiment",3,564,0.52730211582,-0.902007371266,7,0.1,6,27,"pairs","even",0.81500005722,0.459698915482,8,"o","015"
"experiment",1,565,0.589026179196,0.202259722083,5,0.1,1,27,"pairs","even",2.15897011757,2.96517586708,4,"e","015"
"experiment",3,566,-0.0629868048812,0.815385947647,5,0.1,3,27,"pairs","odd",0.398860931396,1.04561281204,4,"e","015"
"experiment",3,567,0.728952120417,0.863784544471,7,0.1,4,27,"pairs","odd",0.66214299202,0.292166948318,4,"o","015"
"experiment",2,568,0.217598520545,0.61450026713,7,0.1,2,27,"pairs","even",0.421674013138,0.986375808716,4,"e","015"
"experiment",4,569,0.78638517831,0.240841019987,7,0.1,5,27,"pairs","odd",0.455034017563,0.223183870316,4,"o","015"
"experiment",4,570,0.344006373118,-0.555547097226,5,0.1,5,27,"pairs","even",0.287000894547,0.433557987213,4,"e","015"
"experiment",2,571,0.147088194756,-0.522594627359,7,0.1,2,27,"pairs","odd",0.525812149048,1.00266313553,8,"o","015"
"experiment",4,572,0.772425643335,-0.223728402032,5,0.1,3,27,"pairs","odd",0.48705291748,0.169075012207,8,"o","015"
"experiment",1,573,-0.865375499313,-0.525175609907,7,0.1,4,27,"pairs","even",2.64697098732,0.329164028168,4,"o","015"
"experiment",4,574,0.27185587114,0.052437030285,7,0.1,6,27,"pairs","odd",2.32682609558,0.600394964218,8,"o","015"
"experiment",2,575,-0.181977826834,0.84531020557,7,0.1,1,27,"pairs","even",0.597929954529,0.338499069214,8,"o","015"
"experiment",3,576,-0.854255582112,-0.628493331019,5,0.1,3,9,"singles","even",0.583019971848,0.612265110016,6,"e","015"
"experiment",3,577,0.973356503558,0.366573248641,5,0.1,1,9,"singles","odd",0.630784034729,0.817371845245,6,"o","015"
"experiment",4,578,-0.212467502653,-0.945706689244,5,0.1,6,9,"singles","even",0.439003944397,0.933629989624,6,"e","015"
"experiment",3,579,-0.216237499877,0.503004208705,5,0.1,2,9,"singles","odd",0.454220056534,0.465487957001,6,"o","015"
"experiment",4,580,-0.914148427468,0.681916618095,5,0.1,5,9,"singles","odd",0.431079864502,0.230797052383,6,"o","015"
"experiment",4,581,-0.954780417106,-0.0409601807469,5,0.1,4,9,"singles","even",0.254858016968,0.426029920578,6,"e","015"
"experiment",3,582,0.0165350621188,0.803264506711,5,0.1,2,9,"singles","even",0.470963954926,0.353528022766,6,"o","015"
"experiment",4,583,-0.150927075565,-0.774505550246,5,0.1,4,9,"singles","odd",0.718145847321,0.159324169159,6,"o","015"
"experiment",3,584,-0.0561843218301,0.602185517254,5,0.1,3,9,"singles","odd",0.55109500885,0.187319993973,6,"o","015"
"experiment",2,585,-0.081996538667,0.237952541932,5,0.1,1,9,"singles","even",0.438758850098,1.11088514328,6,"o","015"
"experiment",4,586,0.395145275363,0.206171856573,5,0.1,6,9,"singles","odd",0.982844114304,0.496253013611,6,"o","015"
"experiment",4,587,-0.844986292152,-0.315443329632,5,0.1,5,9,"singles","even",0.35804605484,0.475075960159,6,"e","015"
"experiment",3,588,-0.94118567391,0.706782547788,7,0.1,4,0,"quadruplet","even",0.478991985321,1.13981199265,2,"e","015"
"experiment",3,589,-0.0442097266961,-0.489925436022,9,0.1,6,0,"quadruplet","odd",0.695027828217,0.129668951035,4,"o","015"
"experiment",3,590,-0.217340980006,-0.560265815222,5,0.1,2,0,"quadruplet","odd",0.461801052094,1.19443583488,4,"e","015"
"experiment",2,591,-0.616287207028,0.296004487902,9,0.1,1,0,"quadruplet","even",1.51083612442,0.485136032104,8,"o","015"
"experiment",4,592,-0.306849647922,0.772648758142,7,0.1,5,0,"quadruplet","even",0.582806825638,0.442850112915,4,"e","015"
"experiment",2,593,-0.169400738525,-0.169149292218,3,0.1,3,0,"quadruplet","odd",0.566828012466,0.731226921082,4,"e","015"
"experiment",4,594,-0.094354893612,0.0608367869883,9,0.1,6,0,"quadruplet","odd",0.487056970596,0.146378993988,6,"o","015"
"experiment",4,595,-0.0404971772484,-0.660703035635,3,0.1,5,0,"quadruplet","even",0.710837841034,0.405803918839,4,"e","015"
"experiment",3,596,0.930472218986,-0.801337668081,9,0.1,1,0,"quadruplet","even",0.334980010986,0.646318912506,4,"o","015"
"experiment",4,597,-0.289969904817,-0.568183906942,9,0.1,4,0,"quadruplet","even",0.358939170837,0.482897043228,4,"e","015"
"experiment",2,598,0.762398512667,-0.625946756778,7,0.1,2,0,"quadruplet","odd",0.414201021194,0.580468177795,8,"o","015"
"experiment",2,599,-0.420934942997,0.222640159324,3,0.1,3,0,"quadruplet","odd",0.429986000061,0.845775842667,6,"e","015"
"experiment",1,600,-0.879093636859,-0.29416074808,3,0.1,1,30,"pairs","even",0.246895074844,1.9463698864,8,"o","015"
"experiment",2,601,-0.201601047922,0.804701670267,5,0.1,4,30,"pairs","odd",0.726840019226,0.630810022354,6,"o","015"
"experiment",2,602,0.235072630632,-0.765196617972,3,0.1,3,30,"pairs","even",0.48606300354,1.50732493401,8,"e","015"
"experiment",1,603,0.625418741415,-0.339739951286,5,0.1,2,30,"pairs","odd",1.81500101089,0.764035224915,8,"o","015"
"experiment",3,604,-0.782757136841,-0.917095488644,5,0.1,5,30,"pairs","even",0.374835968018,0.82302904129,6,"e","015"
"experiment",3,605,0.560230278447,-0.840895490883,5,0.1,6,30,"pairs","odd",0.559059143066,0.339867115021,8,"o","015"
"experiment",4,606,-0.928915504045,0.992081952561,5,0.1,5,30,"pairs","even",0.430939912796,1.05860590935,8,"e","015"
"experiment",4,607,0.81729155372,-0.58420581108,3,0.1,6,30,"pairs","odd",0.766993045807,0.234407186508,8,"o","015"
"experiment",3,608,0.554122945814,0.252809249546,5,0.1,2,30,"pairs","odd",0.510890960693,0.634712934494,8,"o","015"
"experiment",4,609,-0.661862131029,-0.471697698559,5,0.1,4,30,"pairs","even",0.391042947769,0.60224199295,8,"e","015"
"experiment",2,610,-0.486649905517,-0.724008352274,5,0.1,1,30,"pairs","even",0.422878026962,0.63078212738,6,"o","015"
"experiment",2,611,-0.412579896475,0.904524491227,3,0.1,3,30,"pairs","odd",0.566983222961,1.57084202766,6,"o","015"
"experiment",3,612,-0.707678307336,-0.724254349546,7,0.1,5,6,"singles","odd",0.574917078018,0.0962369441986,4,"o","015"
"experiment",4,613,-0.876941517325,0.291557905055,7,0.1,6,6,"singles","even",0.430746078491,0.225935935974,4,"e","015"
"experiment",3,614,0.11705941251,0.80147377109,7,0.1,3,6,"singles","even",0.333709001541,0.513144016266,4,"e","015"
"experiment",2,615,-0.565991526197,0.32431742759,7,0.1,1,6,"singles","odd",0.503098964691,0.192912101746,4,"o","015"
"experiment",2,616,-0.456723395144,0.892103024472,7,0.1,2,6,"singles","odd",0.52588391304,0.307548046112,4,"o","015"
"experiment",3,617,0.774300581079,0.493759629997,7,0.1,4,6,"singles","even",0.694873094559,0.561192989349,4,"e","015"
"experiment",4,618,0.0656255407327,-0.735116229408,7,0.1,6,6,"singles","odd",0.422972917557,0.0914459228516,4,"o","015"
"experiment",4,619,-0.944831440127,-0.036970733434,7,0.1,5,6,"singles","even",1.35010790825,0.340044975281,4,"o","015"
"experiment",2,620,0.271119633417,0.820094877949,7,0.1,3,6,"singles","even",0.50298500061,0.366593122482,4,"o","015"
"experiment",2,621,-0.489673116363,0.685939277705,7,0.1,4,6,"singles","odd",0.455003976822,1.20340704918,4,"o","015"
"experiment",3,622,0.778896209405,0.819070114024,7,0.1,2,6,"singles","even",0.414986133575,0.748975992203,4,"e","015"
"experiment",2,623,0.789644685944,-0.313369319151,7,0.1,1,6,"singles","odd",0.454430103302,0.283746004105,4,"o","015"
"experiment",3,624,0.216182404988,-0.844125829608,9,0.1,5,0,"quadruplet","even",4.06292319298,0.468770980835,8,"o","015"
"experiment",3,625,-0.48602376372,0.115307806406,9,0.1,2,0,"quadruplet","odd",0.478807926178,0.700809955597,8,"o","015"
"experiment",3,626,-0.215965530793,0.0813888219611,9,0.1,4,0,"quadruplet","odd",0.502830028534,0.174633026123,4,"o","015"
"experiment",2,627,-0.601648230485,-0.136759702332,3,0.1,1,0,"quadruplet","even",0.613970041275,0.832031965256,2,"o","015"
"experiment",3,628,0.939548299864,-0.815621277388,9,0.1,6,0,"quadruplet","even",0.365816831589,0.740251064301,2,"e","015"
"experiment",2,629,0.507770634479,0.681831834186,5,0.1,3,0,"quadruplet","odd",0.438877105713,1.044891119,8,"e","015"
"experiment",2,630,-0.341758561433,-0.327283022874,7,0.1,3,0,"quadruplet","odd",0.342929124832,0.848130941391,2,"e","015"
"experiment",4,631,0.389386795414,-0.767788146506,5,0.1,5,0,"quadruplet","even",0.406099081039,0.544539928436,4,"e","015"
"experiment",2,632,-0.113430264441,-0.186246211484,7,0.1,2,0,"quadruplet","odd",0.542171955109,0.975471973419,8,"e","015"
"experiment",4,633,-0.931511788698,0.276278941424,7,0.1,4,0,"quadruplet","even",0.398995876312,0.457202911377,6,"e","015"
"experiment",4,634,-0.0106937773199,0.439230317849,3,0.1,6,0,"quadruplet","odd",0.902277946472,0.328545808792,4,"o","015"
"experiment",3,635,0.813252231516,0.545613610941,5,0.1,1,0,"quadruplet","even",0.510875940323,0.80531001091,2,"e","015"
"experiment",3,636,0.101577750153,0.050245226915,7,0.1,5,7,"pairs","even",0.414822101593,0.944089889526,2,"e","015"
"experiment",4,637,-0.727891691361,-0.370568832101,7,0.1,4,7,"pairs","even",0.262304067612,0.429082870483,6,"e","015"
"experiment",3,638,0.626430188643,-0.140408962003,7,0.1,2,7,"pairs","odd",0.35896396637,0.738728046417,6,"o","015"
"experiment",3,639,0.861499292237,-0.851193939409,3,0.1,3,7,"pairs","odd",3.01489877701,0.300894975662,6,"o","015"
"experiment",4,640,-0.223003950441,-0.728307419402,3,0.1,6,7,"pairs","even",0.326775074005,0.608219146729,6,"e","015"
"experiment",2,641,0.787169635146,0.435569063548,7,0.1,1,7,"pairs","even",0.518836975098,0.74160194397,6,"e","015"
"experiment",4,642,0.712095959056,0.983010967702,7,0.1,4,7,"pairs","odd",0.902863025665,0.339720010757,6,"o","015"
"experiment",3,643,0.0694964624356,0.994895849889,7,0.1,3,7,"pairs","odd",0.710360050201,1.1556930542,6,"e","015"
"experiment",3,644,0.760170763217,-0.839661084472,3,0.1,6,7,"pairs","odd",0.726850986481,0.455260038376,6,"o","015"
"experiment",2,645,0.0947803859046,-0.597118182245,3,0.1,1,7,"pairs","even",0.566279888153,0.9026491642,6,"o","015"
"experiment",4,646,0.997389501416,-0.00863937336303,7,0.1,5,7,"pairs","even",0.72688794136,0.8595058918,2,"e","015"
"experiment",2,647,-0.0665313712746,0.948015630854,3,0.1,2,7,"pairs","odd",0.478766918182,0.937022924423,2,"o","015"
"experiment",2,648,0.180809067542,0.281866840529,3,0.1,1,8,"singles","odd",0.838927984238,1.05990600586,6,"o","015"
"experiment",4,649,-0.615859957437,-0.123972333101,3,0.1,6,8,"singles","even",0.318846940994,0.670904874802,6,"e","015"
"experiment",4,650,0.91839091668,-0.813970315969,3,0.1,5,8,"singles","odd",0.502973079681,0.245917797089,6,"o","015"
"experiment",4,651,-0.898267481865,-0.12762385837,3,0.1,3,8,"singles","even",0.366823911667,0.637225866318,6,"e","015"
"experiment",2,652,-0.202400464778,0.585442876543,3,0.1,2,8,"singles","even",0.398960113525,0.543020963669,6,"o","015"
"experiment",4,653,0.0216757781485,-0.504688207401,3,0.1,4,8,"singles","even",0.278902053833,0.643225908279,6,"e","015"
"experiment",4,654,-0.741653926209,-0.629343450481,3,0.1,6,8,"singles","odd",0.374958992004,0.254289865494,6,"o","015"
"experiment",4,655,0.194723765665,-0.411034501763,3,0.1,5,8,"singles","odd",0.397953033447,0.485545873642,6,"o","015"
"experiment",2,656,0.352746954207,-0.0623976525707,3,0.1,1,8,"singles","odd",0.486832857132,1.03925013542,6,"e","015"
"experiment",4,657,-0.845474881222,-0.193451029699,3,0.1,3,8,"singles","even",0.302750110626,0.550297021866,6,"e","015"
"experiment",4,658,-0.789183757106,-0.220300035662,3,0.1,4,8,"singles","odd",0.343085050583,0.234045028687,6,"o","015"
"experiment",3,659,-0.540900054235,0.391236670169,3,0.1,2,8,"singles","even",0.526213884354,0.763648033142,6,"o","015"
"experiment",2,660,-0.721110438137,0.516744570012,7,0.1,1,5,"pairs","even",0.351088047028,1.27846097946,2,"o","015"
"experiment",3,661,-0.845632289679,-0.490093166215,7,0.1,5,5,"pairs","even",0.46288394928,0.528860807419,4,"e","015"
"experiment",4,662,0.000643557861713,-0.731434868131,9,0.1,6,5,"pairs","odd",1.13404202461,0.201799154282,2,"o","015"
"experiment",3,663,-0.212876692835,0.441267248286,9,0.1,2,5,"pairs","odd",0.447010993958,0.768839120865,4,"o","015"
"experiment",3,664,-0.836054400394,-0.374336581057,7,0.1,3,5,"pairs","odd",0.447155952454,0.279639005661,4,"o","015"
"experiment",3,665,0.876507673027,-0.39317871055,7,0.1,4,5,"pairs","even",0.310124874115,0.549178123474,4,"e","015"
"experiment",3,666,0.061007306514,-0.874193402773,7,0.1,1,5,"pairs","odd",0.342265129089,1.18466591835,4,"e","015"
"experiment",2,667,0.533734649861,0.661148733872,7,0.1,3,5,"pairs","even",0.34291601181,0.872498989105,2,"e","015"
"experiment",3,668,0.124285931115,-0.860391922751,7,0.1,2,5,"pairs","even",0.398298978806,1.04912090302,4,"o","015"
"experiment",4,669,0.793711413247,-0.0477729723319,9,0.1,6,5,"pairs","even",0.606968164444,1.18606996536,4,"e","015"
"experiment",4,670,0.219473997378,-0.577943525004,7,0.1,5,5,"pairs","odd",1.61493515968,0.576932907104,2,"o","015"
"experiment",4,671,0.357028947991,0.723926756761,9,0.1,4,5,"pairs","odd",0.551069021225,0.242491960526,4,"o","015"
"experiment",4,672,0.1115375786,-0.0178372368122,9,0.1,6,0,"quadruplet","even",0.342943191528,0.540395975113,6,"e","015"
"experiment",3,673,-0.542422352747,0.9545200959,5,0.1,1,0,"quadruplet","odd",0.422945022583,0.681855916977,6,"o","015"
"experiment",3,674,0.0886749331814,-0.486003086,7,0.1,3,0,"quadruplet","even",0.542889118195,0.533447980881,2,"e","015"
"experiment",3,675,0.706735170501,-0.616318837896,5,0.1,5,0,"quadruplet","odd",0.46303319931,0.367195129395,4,"o","015"
"experiment",4,676,0.890576453219,-0.688883940724,5,0.1,4,0,"quadruplet","odd",0.446079015732,0.212172031403,6,"o","015"
"experiment",2,677,0.128076517986,0.444136450145,9,0.1,2,0,"quadruplet","odd",1.15905690193,0.413380861282,2,"o","015"
"experiment",4,678,0.532886997109,-0.750075020516,7,0.1,5,0,"quadruplet","even",0.246090888977,0.691972017288,6,"e","015"
"experiment",3,679,-0.171328583943,0.807956328561,5,0.1,4,0,"quadruplet","even",0.246277093887,0.853260993958,6,"e","015"
"experiment",2,680,0.755021357362,-0.220056234632,5,0.1,2,0,"quadruplet","even",0.262279033661,0.874316930771,8,"e","015"
"experiment",2,681,0.189286969206,0.318759613864,7,0.1,3,0,"quadruplet","even",0.83810710907,1.20223999023,8,"e","015"
"experiment",4,682,-0.725556399116,-0.474571183014,5,0.1,6,0,"quadruplet","odd",0.934970140457,0.348812818527,6,"o","015"
"experiment",2,683,0.437663029944,-0.611385754586,7,0.1,1,0,"quadruplet","odd",0.406077861786,0.8955950737,2,"e","015"
"experiment",1,684,0.355588735376,0.129513835869,3,0.1,1,0,"singles","odd",0.39089512825,1.95911407471,2,"e","015"
"experiment",4,685,0.395442427566,-0.53537572106,3,0.1,5,0,"singles","even",0.782840013504,0.670861959457,2,"e","015"
"experiment",4,686,0.695441984925,-0.924010561529,3,0.1,3,0,"singles","even",0.302011013031,0.462456941605,2,"e","015"
"experiment",4,687,0.887836017639,0.516013618962,3,0.1,4,0,"singles","odd",0.335079193115,0.12335395813,2,"o","015"
"experiment",4,688,-0.326218089027,0.787544926695,3,0.1,6,0,"singles","even",0.454949855804,0.353751182556,2,"e","015"
"experiment",1,689,-0.799889537222,0.935289948516,3,0.1,2,0,"singles","odd",0.350875854492,0.966314792633,2,"o","015"
"experiment",4,690,-0.930853192928,0.456989462537,3,0.1,4,0,"singles","even",0.247107028961,0.468647956848,2,"e","015"
"experiment",3,691,-0.707039807019,-0.0797868403474,3,0.1,1,0,"singles","odd",0.934470176697,1.02699303627,2,"e","015"
"experiment",2,692,0.491527201075,0.424366501679,3,0.1,2,0,"singles","even",0.310122966766,0.646489143372,2,"o","015"
"experiment",3,693,-0.123926216665,0.671025921251,3,0.1,5,0,"singles","odd",0.447040081024,0.101827859879,2,"o","015"
"experiment",3,694,0.636338687302,0.0973231281836,3,0.1,6,0,"singles","even",0.302806138992,0.449284076691,2,"e","015"
"experiment",2,695,0.171528751695,-0.895544152537,3,0.1,3,0,"singles","odd",0.518371105194,1.0918648243,2,"e","015"
"experiment",2,696,-0.529279980855,0.475012441787,9,0.1,3,0,"quadruplet","even",0.358978033066,1.08851504326,2,"e","015"
"experiment",3,697,0.96934923405,-0.343147434458,5,0.1,5,0,"quadruplet","even",0.309989929199,0.727555990219,2,"e","015"
"experiment",3,698,-0.386050481294,-0.602568441752,3,0.1,1,0,"quadruplet","odd",0.446218013763,0.702016115189,4,"o","015"
"experiment",3,699,0.13215057986,-0.501956250893,5,0.1,2,0,"quadruplet","odd",1.31095409393,0.859642028809,8,"o","015"
"experiment",3,700,0.122205872205,0.113592581031,9,0.1,4,0,"quadruplet","even",0.862723112106,0.882387876511,6,"e","015"
"experiment",4,701,0.143015849387,-0.538922546864,5,0.1,6,0,"quadruplet","even",0.270951032639,0.463632106781,6,"e","015"
"experiment",2,702,-0.643216339944,-0.485426241117,3,0.1,5,0,"quadruplet","odd",0.58220911026,0.383295059204,6,"o","015"
"experiment",4,703,-0.828282054228,0.622556065534,9,0.1,6,0,"quadruplet","odd",0.454998970032,0.232676029205,6,"o","015"
"experiment",3,704,0.057223007789,-0.00422875128193,5,0.1,1,0,"quadruplet","odd",0.270520925522,2.45875096321,2,"o","015"
"experiment",4,705,0.921036446054,-0.731723827191,7,0.1,3,0,"quadruplet","even",0.373857975006,0.783344984055,8,"e","015"
"experiment",4,706,0.867656036998,-0.431062417495,9,0.1,4,0,"quadruplet","odd",0.270820140839,0.378545045853,2,"e","015"
"experiment",3,707,-0.605091354411,-0.971483093983,9,0.1,2,0,"quadruplet","even",0.470257997513,2.10430908203,6,"o","015"
"experiment",4,708,0.228629429848,0.849129469641,3,0.1,6,32,"pairs","even",0.462908029556,0.493003845215,6,"e","015"
"experiment",3,709,0.122865120824,-0.414829550058,3,0.1,3,32,"pairs","odd",0.374965906143,0.775928020477,6,"o","015"
"experiment",4,710,-0.771958487044,-0.477540253339,3,0.1,5,32,"pairs","even",0.310203075409,0.824277162552,8,"e","015"
"experiment",2,711,0.36492571789,0.562079794246,3,0.1,1,32,"pairs","odd",0.397891044617,1.18270802498,6,"o","015"
"experiment",4,712,0.279566575129,-0.453078427745,3,0.1,4,32,"pairs","even",0.406881093979,0.569168806076,6,"e","015"
"experiment",3,713,-0.221047815053,0.320432399527,9,0.1,2,32,"pairs","odd",0.342853069305,1.04325199127,8,"e","015"
"experiment",3,714,0.117754123062,0.0208642980584,3,0.1,5,32,"pairs","odd",0.614991903305,0.206495046616,8,"o","015"
"experiment",4,715,-0.862814018879,-0.867313511402,3,0.1,4,32,"pairs","even",0.254745960236,0.593514919281,6,"e","015"
"experiment",4,716,0.981818229954,0.279211404016,9,0.1,6,32,"pairs","odd",0.375030040741,0.189282894135,6,"o","015"
"experiment",4,717,0.1408574424,0.558480313591,9,0.1,3,32,"pairs","even",0.502869129181,0.625404119492,6,"e","015"
"experiment",2,718,0.572953517681,0.484283232777,3,0.1,2,32,"pairs","odd",0.118937015533,2.08145213127,6,"o","015"
"experiment",3,719,0.387311864178,-0.175662497536,9,0.1,1,32,"pairs","even",0.414834022522,1.24757385254,6,"o","015"
"experiment",3,720,-0.260756438847,0.334897876708,5,0.1,6,0,"quadruplet","even",0.222804069519,0.652365922928,4,"e","015"
"experiment",3,721,-0.195899511854,0.39626063882,9,0.1,5,0,"quadruplet","even",0.22299695015,0.573977947235,2,"e","015"
"experiment",2,722,-0.951628934302,0.751080687774,3,0.1,1,0,"quadruplet","odd",0.551029920578,0.125247001648,6,"o","015"
"experiment",3,723,0.618047704355,-0.0309588469321,9,0.1,3,0,"quadruplet","odd",0.567068099976,0.125111103058,6,"o","015"
"experiment",3,724,0.974427787678,-0.946938889488,9,0.1,4,0,"quadruplet","even",0.422823905945,0.538549900055,2,"e","015"
"experiment",2,725,0.776508451133,-0.836849683412,5,0.1,2,0,"quadruplet","even",0.398177862167,0.383727073669,4,"o","015"
"experiment",4,726,0.467119881987,-0.0161690128261,3,0.1,3,0,"quadruplet","odd",0.6870200634,0.367182016373,2,"o","015"
"experiment",3,727,-0.185895016825,-0.305209922278,5,0.1,1,0,"quadruplet","odd",0.439007997513,1.23989796638,8,"o","015"
"experiment",2,728,0.354963473179,0.724534367536,5,0.1,4,0,"quadruplet","even",0.414326906204,0.392503976822,4,"o","015"
"experiment",3,729,0.826779676921,0.617595880627,7,0.1,6,0,"quadruplet","odd",0.487028121948,0.387139081955,8,"o","015"
"experiment",4,730,0.730913458368,-0.753630503634,7,0.1,5,0,"quadruplet","even",0.318973064423,0.67952299118,8,"e","015"
"experiment",2,731,-0.404285223447,0.66925728315,7,0.1,2,0,"quadruplet","odd",0.454838037491,0.867735862732,6,"o","015"
"experiment",2,732,-0.875197885452,0.314700327919,7,0.1,2,17,"pairs","even",0.382878065109,2.22720193863,8,"e","015"
"experiment",3,733,-0.866141275276,0.703599437678,7,0.1,1,17,"pairs","odd",0.47887301445,0.654209852219,8,"o","015"
"experiment",4,734,0.0981427049567,-0.56424174388,9,0.1,6,17,"pairs","odd",1.25483608246,0.285753965378,8,"o","015"
"experiment",2,735,0.497902924673,0.65978171436,9,0.1,3,17,"pairs","even",0.366837024689,1.08387899399,8,"o","015"
"experiment",3,736,0.0751694082388,0.730899736248,9,0.1,5,17,"pairs","even",0.518803119659,0.619295120239,2,"e","015"
"experiment",4,737,-0.0639235230254,0.977653648706,9,0.1,4,17,"pairs","odd",0.662844896317,0.276637077332,8,"o","015"
"experiment",2,738,0.050931863843,0.858554804225,7,0.1,4,17,"pairs","odd",0.502882957458,0.335839033127,2,"o","015"
"experiment",4,739,-0.10252184061,-0.668687023151,9,0.1,3,17,"pairs","even",0.318910837173,0.66220998764,8,"e","015"
"experiment",2,740,-0.864622040875,0.528802958041,7,0.1,1,17,"pairs","even",0.303007125854,1.09643793106,2,"o","015"
"experiment",2,741,-0.862426159115,0.229524097362,7,0.1,2,17,"pairs","odd",0.310330867767,1.73443603516,8,"e","015"
"experiment",3,742,-0.787445262404,0.42756285253,7,0.1,6,17,"pairs","even",0.454867839813,0.455173015594,2,"e","015"
"experiment",4,743,-0.068240943866,0.697982190337,7,0.1,5,17,"pairs","odd",0.399010896683,0.168020963669,2,"o","015"
"experiment",4,744,0.854973351629,-0.213525736618,7,0.1,4,2,"singles","odd",0.230933904648,0.493546962738,2,"o","015"
"experiment",3,745,0.364840507081,0.418915027278,7,0.1,2,2,"singles","even",0.942924022675,0.119103908539,2,"o","015"
"experiment",2,746,-0.840878101023,0.310594280639,7,0.1,6,2,"singles","odd",0.382934093475,0.0685520172119,2,"o","015"
"experiment",3,747,0.745386096365,-0.0292946986885,7,0.1,3,2,"singles","even",0.286365032196,0.822690010071,2,"e","015"
"experiment",3,748,0.448440152033,0.669024225623,7,0.1,1,2,"singles","even",0.237983942032,0.896869897842,2,"e","015"
"experiment",3,749,-0.214664994688,0.656677418298,7,0.1,5,2,"singles","odd",0.398019075394,0.14865899086,2,"o","015"
"experiment",3,750,0.943598515971,0.987667412894,7,0.1,3,2,"singles","even",1.19087815285,0.688113927841,2,"e","015"
"experiment",3,751,-0.254338634114,0.919554049184,7,0.1,4,2,"singles","odd",0.487110137939,0.141973018646,2,"o","015"
"experiment",2,752,0.515318762826,-0.583000091798,7,0.1,2,2,"singles","even",0.470943927765,3.48387289047,2,"e","015"
"experiment",4,753,-0.0717505505707,0.26510689187,7,0.1,6,2,"singles","odd",0.583076000214,0.146812915802,2,"o","015"
"experiment",4,754,-0.154980219946,-0.109238585381,7,0.1,5,2,"singles","odd",0.359146118164,0.0463578701019,2,"o","015"
"experiment",2,755,-0.0908288883431,-0.859217581412,7,0.1,1,2,"singles","even",0.390928030014,1.1413860321,2,"o","015"
"experiment",3,756,0.890317843817,-0.844759958877,5,0.1,2,28,"pairs","even",0.49488902092,1.24530100822,8,"e","015"
"experiment",4,757,0.0764517854264,0.863617597152,5,0.1,6,28,"pairs","even",0.31095790863,0.4832072258,8,"e","015"
"experiment",2,758,0.926469406286,0.572664306993,5,0.1,1,28,"pairs","odd",0.374898195267,1.17295598984,4,"o","015"
"experiment",3,759,0.65434273263,0.317883676977,9,0.1,5,28,"pairs","odd",0.638823986053,0.709630966187,4,"o","015"
"experiment",4,760,-0.774431452888,0.710171936044,9,0.1,4,28,"pairs","even",0.462000846863,0.481434822083,8,"e","015"
"experiment",3,761,0.44590840217,0.0421074309186,5,0.1,3,28,"pairs","odd",0.429687976837,0.478785037994,4,"o","015"
"experiment",2,762,0.384013128821,-0.599518797834,5,0.1,2,28,"pairs","even",0.37485408783,1.08055901527,8,"o","015"
"experiment",4,763,-0.155152628928,0.34768597448,5,0.1,6,28,"pairs","odd",0.446089029312,0.311140060425,8,"o","015"
"experiment",4,764,0.764875052759,-0.100094521217,5,0.1,4,28,"pairs","even",0.33492398262,0.474766969681,4,"e","015"
"experiment",2,765,0.348752337277,-0.309208816356,9,0.1,3,28,"pairs","even",1.09483098984,0.307787895203,8,"o","015"
"experiment",4,766,0.7628154772,0.34714395339,5,0.1,5,28,"pairs","odd",0.542897939682,0.872972011566,8,"o","015"
"experiment",2,767,0.741897382836,0.364010874326,5,0.1,1,28,"pairs","odd",0.805876970291,0.298418998718,8,"o","015"
"experiment",3,768,0.0145225725535,0.802327718272,5,0.1,5,5,"singles","even",0.350839138031,0.430937051773,4,"e","015"
"experiment",3,769,-0.872498856292,-0.671773907052,5,0.1,4,5,"singles","even",0.670897960663,0.392176866531,4,"e","015"
"experiment",4,770,0.15629376309,-0.682210487876,5,0.1,6,5,"singles","odd",0.478858947754,0.102195978165,4,"o","015"
"experiment",3,771,0.350521796786,0.541296428191,5,0.1,2,5,"singles","odd",0.455040931702,0.173125982285,4,"o","015"
"experiment",3,772,-0.692182780635,-0.537744950893,5,0.1,3,5,"singles","even",0.446110963821,0.318633079529,4,"o","015"
"experiment",2,773,-0.358703145788,0.46660836564,5,0.1,1,5,"singles","odd",0.495011091232,0.205475091934,4,"o","015"
"experiment",2,774,0.423647461767,0.750338424458,5,0.1,2,5,"singles","odd",0.342217922211,0.492350101471,4,"o","015"
"experiment",3,775,-0.503741814785,-0.554190541086,5,0.1,4,5,"singles","even",0.589926958084,0.628414869308,4,"o","015"
"experiment",2,776,-0.0280369316071,0.776213806293,5,0.1,3,5,"singles","odd",0.750960111618,0.444555044174,4,"o","015"
"experiment",2,777,-0.205180566029,0.377531524362,5,0.1,1,5,"singles","odd",0.383002996445,1.5582780838,4,"e","015"
"experiment",3,778,0.523618308135,0.773208344145,5,0.1,6,5,"singles","even",0.83814406395,0.604064941406,4,"e","015"
"experiment",3,779,-0.0023238119758,0.215495178642,5,0.1,5,5,"singles","even",0.342803001404,0.331618070602,4,"e","015"
"experiment",3,780,-0.267388630291,-0.52225258551,3,0.1,1,0,"quadruplet","odd",0.503003120422,1.24470901489,2,"o","015"
"experiment",3,781,0.278239713323,0.341371781958,5,0.1,6,0,"quadruplet","even",0.254786014557,0.450370073318,6,"e","015"
"experiment",3,782,-0.854778049621,-0.832973464355,9,0.1,3,0,"quadruplet","even",0.230998039246,0.52885389328,8,"e","015"
"experiment",3,783,0.47711598743,0.504714157305,5,0.1,5,0,"quadruplet","odd",0.254239082336,0.392621994019,2,"e","015"
"experiment",3,784,0.604648917294,-0.304901155042,9,0.1,2,0,"quadruplet","odd",0.294991970062,1.09057497978,8,"o","015"
"experiment",4,785,0.28133652592,0.285727266984,9,0.1,4,0,"quadruplet","even",0.358269929886,0.506529092789,8,"e","015"
"experiment",3,786,0.0830025540134,0.307417597126,9,0.1,2,0,"quadruplet","odd",0.494163990021,1.1360001564,4,"e","015"
"experiment",4,787,-0.111807127472,-0.0920150798734,7,0.1,5,0,"quadruplet","even",0.493900060654,0.270677089691,4,"e","015"
"experiment",3,788,0.75833167923,0.591029187463,7,0.1,1,0,"quadruplet","odd",0.302195072174,0.77300786972,2,"e","015"
"experiment",3,789,0.154766649155,0.341045921906,5,0.1,4,0,"quadruplet","odd",0.486793041229,0.338473081589,6,"o","015"
"experiment",3,790,0.175423405801,-0.467737207882,5,0.1,3,0,"quadruplet","even",0.959059000015,0.183389902115,6,"o","015"
"experiment",4,791,0.109628325769,-0.649110090569,9,0.1,6,0,"quadruplet","even",0.462963819504,0.810007095337,4,"e","015"
"experiment",4,792,-0.6299738451,0.0394288305126,9,0.1,6,15,"singles","odd",0.782984972,0.443278074265,8,"o","015"
"experiment",3,793,-0.305899680309,0.11065226703,9,0.1,1,15,"singles","odd",0.413861989975,0.570127010345,8,"o","015"
"experiment",2,794,0.736622928332,0.914141510454,9,0.1,3,15,"singles","even",0.558959007263,0.206161975861,8,"o","015"
"experiment",4,795,0.777913300161,-0.521836099306,9,0.1,5,15,"singles","even",0.423012018204,0.559366941452,8,"e","015"
"experiment",4,796,0.562107191342,0.555127367344,9,0.1,4,15,"singles","odd",0.469969987869,0.319074869156,8,"o","015"
"experiment",2,797,-0.508805583055,0.439249813923,9,0.1,2,15,"singles","even",0.422867059708,0.818170070648,8,"o","015"
"experiment",2,798,0.672480346693,-0.944431270346,9,0.1,3,15,"singles","odd",0.430804014206,0.278634786606,8,"o","015"
"experiment",4,799,0.814989483061,-0.405327718164,9,0.1,4,15,"singles","even",0.30300784111,0.561275959015,8,"e","015"
"experiment",2,800,0.724141440926,0.933603343584,9,0.1,2,15,"singles","even",0.494871139526,0.348587989807,8,"o","015"
"experiment",3,801,0.405593843732,-0.863132651716,9,0.1,1,15,"singles","odd",0.422180175781,0.359853029251,8,"o","015"
"experiment",4,802,-0.00240224784738,0.600795202554,9,0.1,5,15,"singles","even",0.51885509491,0.457015991211,8,"e","015"
"experiment",4,803,-0.175449805424,0.113186115318,9,0.1,6,15,"singles","odd",0.574231147766,0.148054122925,8,"o","015"
"experiment",4,804,0.291506693606,-0.696032093319,7,0.1,5,0,"quadruplet","odd",0.934844970703,0.45299911499,8,"o","015"
"experiment",4,805,-0.69308753694,0.867052538299,9,0.1,6,0,"quadruplet","even",0.334968090057,0.564072132111,8,"e","015"
"experiment",3,806,0.791233273524,-0.0311838887281,9,0.1,2,0,"quadruplet","odd",0.294154167175,0.569917917252,4,"o","015"
"experiment",4,807,-0.629557302792,-0.566902201124,7,0.1,4,0,"quadruplet","even",0.270919084549,0.388223171234,4,"e","015"
"experiment",2,808,-0.0947147831032,-0.214068677484,7,0.1,1,0,"quadruplet","odd",0.390826940536,0.595901966095,2,"o","015"
"experiment",4,809,0.697380818609,0.875680182388,3,0.1,3,0,"quadruplet","even",0.229892969131,0.415887832642,8,"e","015"
"experiment",3,810,-0.952359153012,0.934682254533,5,0.1,1,0,"quadruplet","even",0.407011032104,0.559210062027,8,"o","015"
"experiment",3,811,0.917301616548,0.635878316425,7,0.1,3,0,"quadruplet","odd",0.48704791069,0.19153213501,6,"o","015"
"experiment",3,812,-0.386443051054,0.843800703645,5,0.1,6,0,"quadruplet","even",0.246950864792,0.362108945847,4,"e","015"
"experiment",4,813,0.350766329429,-0.762794176582,5,0.1,5,0,"quadruplet","odd",0.390058040619,0.802295207977,4,"o","015"
"experiment",4,814,0.0484920832801,-0.886647859011,5,0.1,4,0,"quadruplet","even",0.422758102417,0.370142936707,2,"e","015"
"experiment",4,815,-0.584450896303,-0.253987441857,7,0.1,2,0,"quadruplet","odd",0.25403881073,1.35532689095,2,"e","015"
"experiment",3,816,-0.633437392988,-0.444680810212,3,0.1,4,24,"pairs","odd",0.430881023407,0.580123186111,4,"o","015"
"experiment",2,817,-0.211119228661,-0.835036907245,5,0.1,1,24,"pairs","odd",0.302220106125,0.846738100052,8,"e","015"
"experiment",4,818,0.241787587021,0.00909800378922,5,0.1,6,24,"pairs","even",0.286242961884,0.37233710289,4,"e","015"
"experiment",4,819,0.948912614182,-0.0691225853437,3,0.1,5,24,"pairs","even",0.262886047363,0.394129037857,8,"e","015"
"experiment",2,820,-0.654693075602,-0.00517423478778,3,0.1,2,24,"pairs","odd",1.07822394371,0.749038934708,4,"o","015"
"experiment",3,821,-0.367660710057,-0.661515438757,3,0.1,3,24,"pairs","even",0.255082130432,0.85377907753,4,"e","015"
"experiment",4,822,0.773883414667,-0.618233463495,3,0.1,4,24,"pairs","even",0.318977117538,0.322387933731,8,"e","015"
"experiment",2,823,-0.438854516627,-0.0819952212108,5,0.1,1,24,"pairs","odd",0.350822925568,0.840093135834,4,"o","015"
"experiment",2,824,-0.851790500519,-0.268785759383,3,0.1,5,24,"pairs","even",0.542900085449,1.89471006393,4,"e","015"
