"trial.type","pas","trial","jitter.x","jitter.y","odd.digit","target.contrast","target.frames","cue","task","target.type","rt.subj","rt.obj","even.digit","obj.resp","subject"
"practice",3,0,0.802068024794,0.626775232846,9,0.1,9,0,"quadruplet","even",3.87851595879,4.69532585144,4,"e","029"
"practice",4,1,0.849091092574,-0.988475332417,3,0.1,8,0,"quadruplet","odd",1.5588080883,0.858361005783,8,"o","029"
"practice",4,2,-0.357933766371,0.0536374377539,7,0.1,7,0,"quadruplet","even",1.25487589836,1.00251984596,8,"e","029"
"practice",4,3,0.237058384264,-0.165098009928,5,0.1,6,0,"quadruplet","odd",2.26283788681,0.849889993668,4,"o","029"
"practice",2,4,-0.575484667902,-0.592278111007,5,0.1,5,0,"quadruplet","even",3.06288504601,1.36394500732,8,"o","029"
"practice",3,5,0.49910271423,-0.598718124701,3,0.1,4,0,"quadruplet","odd",1.14284491539,0.930968046188,6,"o","029"
"practice",2,6,-0.817474522745,0.633614143969,5,0.1,3,0,"quadruplet","even",2.19876098633,1.81351304054,4,"o","029"
"practice",2,7,0.79684379239,-0.594950159842,3,0.1,2,0,"quadruplet","odd",1.25471115112,1.40625309944,2,"o","029"
"practice",1,8,0.522922334921,0.35738369795,9,0.1,1,0,"quadruplet","even",6.93480706215,1.96080303192,2,"e","029"
"practice",4,9,-0.596862932883,-0.101364734423,7,0.1,9,0,"quadruplet","odd",1.25491213799,0.799585103989,2,"o","029"
"practice",3,10,0.411480013303,0.887813688154,7,0.1,8,0,"quadruplet","even",0.966823816299,1.20621705055,6,"e","029"
"practice",3,11,0.689749438184,-0.507942733661,3,0.1,7,0,"quadruplet","odd",1.28687310219,1.12393808365,4,"o","029"
"practice",4,12,-0.435526661241,-0.395315217388,7,0.1,6,0,"quadruplet","even",1.14290308952,0.799257993698,2,"e","029"
"practice",4,13,0.365492315804,-0.748787868014,5,0.1,5,0,"quadruplet","odd",3.56686902046,0.850800037384,8,"o","029"
"practice",3,14,-0.521419036766,0.674281580416,5,0.1,4,0,"quadruplet","even",1.19887089729,0.67520904541,2,"e","029"
"practice",3,15,-0.497683977613,-0.531416955585,9,0.1,3,0,"quadruplet","odd",0.96667098999,1.04486203194,6,"o","029"
"practice",2,16,-0.733280072291,-0.443850174763,9,0.1,2,0,"quadruplet","even",2.20675420761,2.39752578735,6,"e","029"
"practice",3,17,-0.290457788557,0.859548132882,7,0.1,1,0,"quadruplet","odd",0.686852931976,0.838554143906,6,"o","029"
"experiment",2,0,-0.713807540364,-0.718569409344,5,0.1,1,0,"quadruplet","even",1.51081490517,1.70986509323,8,"e","029"
"experiment",3,1,-0.478496418828,0.465702569465,7,0.1,4,0,"quadruplet","odd",0.830821990967,0.672540903091,6,"o","029"
"experiment",2,2,0.389207674995,-0.0787340867242,7,0.1,3,0,"quadruplet","odd",1.15078306198,0.750953912735,4,"e","029"
"experiment",2,3,-0.194090578173,-0.257053691255,5,0.1,5,0,"quadruplet","even",1.13488984108,0.670724153519,6,"e","029"
"experiment",2,4,-0.957839658305,-0.0233515193662,7,0.1,2,0,"quadruplet","odd",1.10284304619,1.28873801231,8,"o","029"
"experiment",4,5,0.00501269866547,0.182934546991,5,0.1,6,0,"quadruplet","odd",1.05485486984,1.4256029129,8,"o","029"
"experiment",1,6,0.97940780512,0.0482063180437,5,0.1,1,0,"quadruplet","even",0.366766929626,1.51207685471,4,"e","029"
"experiment",3,7,-0.701497013386,0.877178475775,5,0.1,5,0,"quadruplet","even",1.59874081612,2.35653996468,6,"e","029"
"experiment",2,8,0.275227230234,-0.317194960692,5,0.1,3,0,"quadruplet","even",1.71083593369,1.34308099747,2,"o","029"
"experiment",2,9,-0.526502649636,-0.00534785029211,9,0.1,2,0,"quadruplet","odd",1.60685491562,1.25149798393,2,"o","029"
"experiment",2,10,-0.481138625164,0.774280744309,3,0.1,4,0,"quadruplet","even",2.97481894493,0.840088844299,8,"e","029"
"experiment",3,11,0.841037710176,-0.503828051855,9,0.1,6,0,"quadruplet","odd",1.87081289291,2.05213093758,4,"o","029"
"experiment",2,12,-0.782458848529,-0.550403868902,5,0.1,4,16,"pairs","odd",1.95884799957,3.97380900383,8,"e","029"
"experiment",2,13,0.316658675505,0.994544531285,5,0.1,2,16,"pairs","even",2.71071887016,1.71247982979,8,"o","029"
"experiment",2,14,-0.0219612635952,-0.990455018899,9,0.1,5,16,"pairs","odd",6.6149289608,2.39910197258,2,"o","029"
"experiment",4,15,-0.679420777518,0.0917819754472,5,0.1,6,16,"pairs","even",1.59889507294,0.458693981171,2,"e","029"
"experiment",4,16,-0.0410426357428,-0.0372346373365,9,0.1,3,16,"pairs","even",1.06285810471,0.818419933319,2,"e","029"
"experiment",2,17,0.209307359186,-0.503245699041,9,0.1,1,16,"pairs","odd",2.10287189484,2.40451693535,8,"o","029"
"experiment",3,18,0.66241856175,-0.354340326592,5,0.1,5,16,"pairs","odd",1.44605779648,0.874490976334,2,"o","029"
"experiment",3,19,-0.392697575204,0.897337050252,9,0.1,2,16,"pairs","even",1.27085995674,0.879956007004,2,"e","029"
"experiment",4,20,0.433483877413,-0.716238810013,5,0.1,3,16,"pairs","even",0.942776918411,1.07876396179,2,"o","029"
"experiment",4,21,0.279209437556,0.0489174514327,5,0.1,1,16,"pairs","odd",1.05486392975,0.828956127167,8,"o","029"
"experiment",3,22,0.248003092759,0.660318086072,5,0.1,4,16,"pairs","even",1.9428589344,1.19006800652,2,"e","029"
"experiment",3,23,-0.688962561691,-0.803209287234,5,0.1,6,16,"pairs","odd",6.31883311272,1.80929803848,2,"o","029"
"experiment",4,24,0.833534401466,0.190777596807,7,0.1,4,14,"singles","odd",2.64678406715,1.51490306854,8,"o","029"
"experiment",4,25,0.552997909619,0.467509077334,7,0.1,5,14,"singles","even",0.582739830017,0.663519859314,8,"e","029"
"experiment",1,26,-0.483486557782,0.878482514374,7,0.1,1,14,"singles","even",0.590770959854,1.7604739666,8,"e","029"
"experiment",4,27,-0.576630201683,0.219575437882,7,0.1,2,14,"singles","odd",0.742892980576,0.902054071426,8,"o","029"
"experiment",3,28,-0.630877659925,0.709816813328,7,0.1,3,14,"singles","even",2.75075507164,0.535805940628,8,"e","029"
"experiment",4,29,-0.355771099484,-0.376649517398,7,0.1,6,14,"singles","even",0.670866966248,1.38815522194,8,"e","029"
"experiment",2,30,-0.688246417788,-0.211284131247,7,0.1,3,14,"singles","odd",1.42278695107,1.18896698952,8,"o","029"
"experiment",3,31,0.190237559406,-0.647250300867,7,0.1,4,14,"singles","odd",0.694983005524,1.47886419296,8,"o","029"
"experiment",3,32,-0.984599559941,-0.249268708539,7,0.1,5,14,"singles","even",3.71091890335,1.13949918747,8,"e","029"
"experiment",3,33,-0.266204267611,-0.508718089069,7,0.1,6,14,"singles","odd",5.33419299126,1.82418203354,8,"o","029"
"experiment",2,34,0.990510443664,0.257775564884,7,0.1,1,14,"singles","even",4.1426961422,0.885608911514,8,"o","029"
"experiment",3,35,0.362799830422,-0.108069259405,7,0.1,2,14,"singles","odd",0.861983060837,0.721482992172,8,"o","029"
"experiment",2,36,-0.996410190794,-0.875834913793,5,0.1,2,0,"quadruplet","even",3.0468518734,1.47739195824,8,"e","029"
"experiment",4,37,-0.10097848409,0.673547775412,3,0.1,3,0,"quadruplet","odd",0.990802049637,1.84912610054,8,"o","029"
"experiment",4,38,0.737716293256,0.636166764463,7,0.1,4,0,"quadruplet","odd",0.59086894989,1.33094906807,4,"o","029"
"experiment",2,39,-0.720672303373,0.893391815352,5,0.1,1,0,"quadruplet","even",1.3108048439,1.22954392433,8,"e","029"
"experiment",4,40,0.95063749492,-0.970282490522,7,0.1,5,0,"quadruplet","odd",0.542824983597,0.648259878159,4,"o","029"
"experiment",4,41,-0.0802576396637,0.919920439689,5,0.1,6,0,"quadruplet","even",0.50284409523,0.589858055115,8,"e","029"
"experiment",2,42,0.540751182503,-0.60663800706,7,0.1,3,0,"quadruplet","even",0.782773971558,1.66601204872,2,"e","029"
"experiment",3,43,-0.861359595997,0.157521707629,5,0.1,6,0,"quadruplet","odd",1.67082595825,1.86352705956,2,"o","029"
"experiment",2,44,0.72726075303,-0.723720137595,9,0.1,1,0,"quadruplet","even",1.41408991814,0.823492050171,6,"e","029"
"experiment",3,45,0.466555192266,0.324734442418,7,0.1,4,0,"quadruplet","even",5.34208488464,0.681249141693,6,"e","029"
"experiment",2,46,-0.467428720731,0.00983129402931,9,0.1,2,0,"quadruplet","odd",0.790066003799,2.71300196648,8,"e","029"
"experiment",3,47,0.604479414492,-0.558232245672,5,0.1,5,0,"quadruplet","odd",0.870765924454,4.28836393356,2,"o","029"
"experiment",3,48,0.351983407144,0.983674454329,3,0.1,6,12,"singles","even",3.79887604713,1.40741801262,8,"e","029"
"experiment",4,49,0.649003623417,0.249136151482,3,0.1,5,12,"singles","even",0.662909030914,0.785933017731,8,"e","029"
"experiment",1,50,-0.557350369264,-0.555503086821,3,0.1,2,12,"singles","odd",0.533949136734,1.87182688713,8,"o","029"
"experiment",2,51,0.379500491585,-0.801695443456,3,0.1,1,12,"singles","odd",0.574882030487,0.816895961761,8,"o","029"
"experiment",3,52,0.608311704498,-0.33805738507,3,0.1,4,12,"singles","odd",0.534763097763,1.100233078,8,"o","029"
"experiment",4,53,-0.59822301445,0.868151099064,3,0.1,3,12,"singles","even",0.726159095764,0.614143848419,8,"e","029"
"experiment",2,54,-0.942330572005,-0.781853315385,3,0.1,5,12,"singles","odd",0.390804052353,0.999400854111,8,"o","029"
"experiment",2,55,-0.0663245182133,-0.520891925176,3,0.1,3,12,"singles","even",0.750231981277,0.98912191391,8,"e","029"
"experiment",2,56,0.745078701384,-0.12286482174,3,0.1,4,12,"singles","even",3.40686392784,0.538953065872,8,"e","029"
"experiment",1,57,0.889823656776,0.163571790207,3,0.1,1,12,"singles","odd",0.350675106049,2.04874682426,8,"o","029"
"experiment",1,58,-0.777624953028,0.654234162204,3,0.1,2,12,"singles","odd",2.33484005928,0.851485013962,8,"e","029"
"experiment",4,59,-0.722104079733,-0.34587318705,3,0.1,6,12,"singles","even",0.726972818375,0.743635892868,8,"e","029"
"experiment",4,60,0.0686958547868,-0.0285541274061,9,0.1,4,34,"pairs","even",4.89495015144,1.56755399704,8,"e","029"
"experiment",1,61,0.489580276052,0.482845006248,5,0.1,1,34,"pairs","even",2.96685695648,11.7015621662,8,"e","029"
"experiment",4,62,0.799558322264,-0.513694303027,9,0.1,5,34,"pairs","odd",1.19887089729,0.780459165573,8,"o","029"
"experiment",3,63,0.0920642356852,0.686417013133,5,0.1,3,34,"pairs","odd",0.894798994064,0.91472697258,6,"o","029"
"experiment",2,64,0.234387310086,0.136377032718,9,0.1,2,34,"pairs","odd",1.14281916618,0.690773963928,8,"e","029"
"experiment",3,65,0.434319635595,-0.411360404104,5,0.1,6,34,"pairs","even",1.22288799286,0.771447896957,8,"e","029"
"experiment",3,66,0.912949099424,-0.449003546735,9,0.1,5,34,"pairs","odd",0.718755960464,1.3523619175,8,"o","029"
"experiment",2,67,-0.0140484009248,-0.772560828228,5,0.1,4,34,"pairs","even",0.574804067612,2.4122531414,8,"o","029"
"experiment",2,68,0.172959080749,-0.69155137351,5,0.1,2,34,"pairs","odd",1.19082999229,0.88280916214,8,"e","029"
"experiment",1,69,0.728690044859,-0.604340570947,5,0.1,1,34,"pairs","even",0.73480796814,1.13360714912,8,"o","029"
"experiment",4,70,-0.80237611167,0.602111856039,9,0.1,6,34,"pairs","even",0.7027759552,1.58021402359,6,"e","029"
"experiment",2,71,-0.330856641691,0.368299456818,9,0.1,3,34,"pairs","odd",1.52576708794,1.13057994843,6,"o","029"
"experiment",2,72,-0.415666094939,0.924508619067,9,0.1,4,15,"singles","even",0.782886981964,1.08112311363,8,"e","029"
"experiment",2,73,0.286588157961,0.273989593518,9,0.1,5,15,"singles","even",0.638836145401,1.21583986282,8,"e","029"
"experiment",2,74,-0.118873818381,0.0854663386197,9,0.1,2,15,"singles","odd",1.30294799805,1.00235700607,8,"o","029"
"experiment",2,75,-0.143943610846,-0.788236719966,9,0.1,1,15,"singles","odd",0.630036115646,1.15161585808,8,"e","029"
"experiment",4,76,-0.856046998384,0.187995103212,9,0.1,6,15,"singles","even",0.629944086075,1.89817786217,8,"e","029"
"experiment",2,77,-0.870960261413,-0.983893655756,9,0.1,3,15,"singles","odd",1.07079291344,1.11263608932,8,"o","029"
"experiment",4,78,0.24762129441,0.931419297405,9,0.1,3,15,"singles","even",0.8708319664,0.782942056656,8,"e","029"
"experiment",2,79,0.910185592257,-0.603549314924,9,0.1,4,15,"singles","odd",1.21483492851,2.86015605927,8,"o","029"
"experiment",4,80,-0.592281624696,-0.0382499798995,9,0.1,2,15,"singles","even",0.694869041443,0.741358995438,8,"e","029"
"experiment",2,81,0.228544224771,-0.377256110147,9,0.1,1,15,"singles","odd",0.998891115189,0.666156053543,8,"e","029"
"experiment",3,82,-0.683277866554,-0.787344074981,9,0.1,5,15,"singles","even",1.88681793213,0.717947006226,8,"e","029"
"experiment",4,83,-0.595673530605,0.821389052789,9,0.1,6,15,"singles","odd",2.926831007,1.04238009453,8,"o","029"
"experiment",3,84,0.788656784865,0.354905325317,5,0.1,3,0,"pairs","odd",2.92678689957,1.31116509438,2,"o","029"
"experiment",4,85,0.0336612895411,-0.551084720188,5,0.1,6,0,"pairs","even",0.42284488678,0.856320858002,4,"e","029"
"experiment",2,86,0.0981351514175,0.663617081032,3,0.1,2,0,"pairs","odd",0.710827827454,0.817276954651,4,"o","029"
"experiment",1,87,-0.931725026367,-0.87791869655,3,0.1,1,0,"pairs","even",0.398824930191,1.19867515564,4,"e","029"
"experiment",3,88,-0.596349314717,0.409858071631,5,0.1,5,0,"pairs","odd",2.28599214554,5.61476182938,2,"o","029"
"experiment",2,89,0.413685960175,-0.206800811168,3,0.1,4,0,"pairs","odd",1.0067949295,1.06649422646,4,"o","029"
"experiment",3,90,-0.311187556061,-0.567340676885,5,0.1,4,0,"pairs","even",0.774842023849,1.19188404083,2,"e","029"
"experiment",4,91,0.237010502019,-0.016985851179,3,0.1,6,0,"pairs","even",1.59880495071,1.77665615082,4,"e","029"
"experiment",2,92,-0.405124178547,0.310719955947,5,0.1,3,0,"pairs","even",1.22269797325,2.5433781147,4,"e","029"
"experiment",1,93,-0.696275005485,-0.259223737783,5,0.1,1,0,"pairs","odd",0.49405503273,1.57165813446,2,"o","029"
"experiment",1,94,0.297636701561,0.729137894714,3,0.1,2,0,"pairs","even",2.58203601837,1.79960012436,4,"o","029"
"experiment",4,95,-0.033737076893,0.474192359671,3,0.1,5,0,"pairs","odd",4.14286708832,0.622025966644,2,"o","029"
"experiment",3,96,0.805782262678,0.497606510795,5,0.1,5,0,"quadruplet","odd",0.846999883652,1.51358604431,6,"o","029"
"experiment",1,97,-0.603293941372,0.0155347907513,5,0.1,3,0,"quadruplet","odd",0.606792926788,0.874467134476,2,"e","029"
"experiment",4,98,0.449953764773,0.358761849888,7,0.1,4,0,"quadruplet","even",1.95004296303,0.756258964539,2,"e","029"
"experiment",2,99,0.399324586145,-0.418477128038,3,0.1,1,0,"quadruplet","even",0.526798963547,1.07985496521,4,"e","029"
"experiment",1,100,0.619766149757,0.318495688335,5,0.1,2,0,"quadruplet","odd",1.22282505035,1.73120999336,4,"o","029"
"experiment",3,101,-0.195039049984,0.810871515819,5,0.1,6,0,"quadruplet","even",0.934084892273,0.683603048325,8,"e","029"
"experiment",2,102,0.771561776173,0.0767974478304,5,0.1,1,0,"quadruplet","even",1.91077709198,0.434236049652,2,"o","029"
"experiment",1,103,-0.446736321034,-0.990266273008,5,0.1,2,0,"quadruplet","odd",1.23799014091,1.21320486069,6,"e","029"
"experiment",2,104,0.844886451554,-0.724356957229,9,0.1,6,0,"quadruplet","even",1.26262497902,1.62070298195,6,"e","029"
"experiment",4,105,0.821686151379,-0.489501479439,3,0.1,5,0,"quadruplet","even",0.662081003189,1.04597616196,2,"e","029"
"experiment",3,106,-0.961195790598,0.773000794568,3,0.1,4,0,"quadruplet","odd",1.5028898716,4.40656781197,4,"o","029"
"experiment",3,107,-0.482604795772,0.280303315797,5,0.1,3,0,"quadruplet","odd",0.566750049591,0.864706039429,8,"o","029"
"experiment",2,108,-0.347384359218,0.00113638266921,7,0.1,3,6,"singles","even",2.87075209618,2.00475907326,4,"e","029"
"experiment",4,109,0.10807860536,-0.709082251691,7,0.1,5,6,"singles","odd",5.75888299942,0.696576118469,4,"o","029"
"experiment",2,110,0.707741326513,-0.324655910356,7,0.1,2,6,"singles","odd",1.00608706474,1.41130304337,4,"o","029"
"experiment",4,111,-0.573811112018,0.322225287096,7,0.1,6,6,"singles","even",1.53481698036,1.04268908501,4,"e","029"
"experiment",4,112,-0.638626725714,-0.61641404944,7,0.1,4,6,"singles","odd",0.582203865051,0.766339063644,4,"o","029"
"experiment",1,113,-0.968459973966,0.754162773804,7,0.1,1,6,"singles","odd",0.510886907578,1.02699589729,4,"e","029"
"experiment",1,114,-0.762080362455,0.737985243377,7,0.1,3,6,"singles","even",0.341972827911,1.04540705681,4,"o","029"
"experiment",1,115,-0.0385382252047,-0.996337311282,7,0.1,1,6,"singles","even",0.814134120941,0.684771060944,4,"o","029"
"experiment",4,116,-0.060747717864,-0.770481731995,7,0.1,5,6,"singles","even",0.934771060944,1.26550006866,4,"e","029"
"experiment",1,117,-0.416262604052,-0.422449685985,7,0.1,2,6,"singles","odd",0.382865905762,0.391360044479,4,"o","029"
"experiment",4,118,-0.0511636135364,-0.667414635226,7,0.1,4,6,"singles","odd",0.470746040344,0.734303951263,4,"o","029"
"experiment",4,119,0.47404594122,0.501245965594,7,0.1,6,6,"singles","even",0.63879609108,0.810503959656,4,"e","029"
"experiment",1,120,0.14369362668,0.709910733089,5,0.1,2,0,"quadruplet","even",0.494789123535,4.84472703934,6,"e","029"
"experiment",2,121,-0.0504713994768,0.992691248952,9,0.1,3,0,"quadruplet","even",3.59008789062,0.61236000061,2,"o","029"
"experiment",3,122,0.327555709025,-0.850173658468,9,0.1,4,0,"quadruplet","odd",1.08695197105,0.741080999374,8,"o","029"
"experiment",3,123,0.589858702265,-0.285542306794,5,0.1,5,0,"quadruplet","odd",0.68670797348,2.03246998787,8,"o","029"
"experiment",2,124,-0.979403882674,0.225126129698,5,0.1,1,0,"quadruplet","odd",1.02195382118,1.99667596817,2,"e","029"
"experiment",2,125,0.699524686678,0.11528013601,5,0.1,6,0,"quadruplet","even",0.998032093048,1.17681002617,8,"e","029"
"experiment",1,126,-0.560594829282,0.237874262428,5,0.1,2,0,"quadruplet","even",0.405944108963,1.00286316872,2,"o","029"
"experiment",1,127,-0.973991428105,0.091271857782,5,0.1,3,0,"quadruplet","odd",0.310828924179,0.527570962906,2,"e","029"
"experiment",4,128,0.95203349277,-0.992924076814,7,0.1,6,0,"quadruplet","even",1.0700609684,0.924067974091,6,"e","029"
"experiment",3,129,0.111800992715,0.225851406537,7,0.1,5,0,"quadruplet","odd",0.814779996872,3.00811290741,4,"o","029"
"experiment",1,130,-0.959387659638,-0.235803750501,7,0.1,4,0,"quadruplet","odd",0.64591884613,0.647679805756,6,"e","029"
"experiment",3,131,-0.461481631769,-0.586312739769,9,0.1,1,0,"quadruplet","even",0.654907941818,0.329120874405,2,"o","029"
"experiment",2,132,0.749533905235,0.640689016048,3,0.1,2,32,"pairs","odd",0.43080496788,1.09372496605,6,"e","029"
"experiment",4,133,-0.673284422564,0.113819619474,3,0.1,6,32,"pairs","odd",1.21481704712,1.40641689301,8,"o","029"
"experiment",4,134,0.390727290578,0.186755388594,3,0.1,4,32,"pairs","even",0.382665157318,2.00642895699,6,"e","029"
"experiment",4,135,-0.883412576405,0.113771073288,3,0.1,5,32,"pairs","even",0.48687505722,0.446058034897,6,"e","029"
"experiment",1,136,-0.218838171663,0.035738517483,3,0.1,1,32,"pairs","even",0.174726963043,0.944719076157,8,"e","029"
"experiment",2,137,0.230407461752,-0.452182068812,9,0.1,3,32,"pairs","odd",0.510340213776,1.33570599556,6,"e","029"
"experiment",4,138,0.858880299976,0.616158315064,9,0.1,6,32,"pairs","even",0.342808008194,0.603600978851,8,"e","029"
"experiment",1,139,0.140266680436,0.600862492353,3,0.1,2,32,"pairs","odd",0.318848133087,1.38367795944,8,"o","029"
"experiment",1,140,-0.0617297941997,0.786812984819,3,0.1,1,32,"pairs","odd",0.853952169418,0.636779069901,6,"e","029"
"experiment",4,141,0.10388191731,0.140993690198,3,0.1,4,32,"pairs","even",3.31887984276,0.676907062531,8,"e","029"
"experiment",3,142,-0.291825097567,0.0278411615558,3,0.1,3,32,"pairs","even",1.94285106659,0.961390018463,6,"e","029"
"experiment",4,143,0.862259218876,0.298780729097,3,0.1,5,32,"pairs","odd",0.950871944427,0.562287807465,8,"o","029"
"experiment",1,144,0.684288725549,-0.0344995950477,9,0.1,2,0,"quadruplet","even",0.462791204453,2.74583792686,6,"e","029"
"experiment",4,145,-0.249585938566,-0.911604284645,5,0.1,6,0,"quadruplet","even",0.462044000626,0.987801790237,8,"e","029"
"experiment",3,146,-0.661440869669,-0.817517242062,9,0.1,4,0,"quadruplet","odd",4.43084597588,0.874886989594,4,"o","029"
"experiment",4,147,0.254879548142,0.798448023016,9,0.1,5,0,"quadruplet","odd",0.414656877518,2.16011309624,2,"o","029"
"experiment",3,148,0.530809277468,0.720386103772,3,0.1,3,0,"quadruplet","odd",0.525903940201,0.694543123245,8,"o","029"
"experiment",1,149,-0.372258465229,0.736191293959,5,0.1,1,0,"quadruplet","even",0.254720926285,2.67236399651,4,"e","029"
"experiment",3,150,0.152292649029,-0.861840832276,3,0.1,4,0,"quadruplet","odd",0.790542840958,0.865541934967,4,"o","029"
"experiment",4,151,-0.166681132664,0.222773464784,9,0.1,6,0,"quadruplet","even",0.558846950531,0.514178991318,4,"e","029"
"experiment",1,152,-0.300359797722,-0.097271295829,3,0.1,2,0,"quadruplet","even",0.75879907608,0.470214128494,2,"e","029"
"experiment",1,153,-0.475189799536,0.728756943457,9,0.1,3,0,"quadruplet","even",3.90284609795,0.371653079987,4,"o","029"
"experiment",2,154,-0.835666018538,0.942888877325,7,0.1,5,0,"quadruplet","odd",0.894787073135,5.62603712082,4,"e","029"
"experiment",2,155,-0.207340253028,-0.148249102214,7,0.1,1,0,"quadruplet","odd",1.19007301331,0.817898035049,6,"e","029"
"experiment",2,156,-0.619693014896,0.864083266932,9,0.1,1,3,"singles","odd",0.966775178909,1.53878211975,2,"e","029"
"experiment",1,157,-0.680891903768,-0.452325857281,9,0.1,2,3,"singles","odd",0.253964185715,3.13943099976,2,"e","029"
"experiment",4,158,0.977136052023,0.0528216324576,9,0.1,4,3,"singles","even",0.462965965271,0.748028039932,2,"e","029"
"experiment",4,159,-0.094100424876,0.988422126644,9,0.1,6,3,"singles","even",0.726800918579,0.496026992798,2,"e","029"
"experiment",4,160,-0.390508641527,0.600303892373,9,0.1,5,3,"singles","odd",0.846055984497,0.720973968506,2,"o","029"
"experiment",1,161,-0.866383917897,0.265307405179,9,0.1,3,3,"singles","even",0.398781061172,1.87399291992,2,"e","029"
"experiment",4,162,0.274767553944,0.624519678933,9,0.1,4,3,"singles","odd",0.758809089661,0.685853004456,2,"o","029"
"experiment",3,163,-0.681936052425,0.800959879812,9,0.1,6,3,"singles","even",3.14290690422,0.563231945038,2,"e","029"
"experiment",3,164,0.702040226239,-0.198808108348,9,0.1,5,3,"singles","odd",2.94999504089,1.25463891029,2,"o","029"
"experiment",1,165,0.931338262494,-0.493167400157,9,0.1,2,3,"singles","odd",0.366765022278,0.761312961578,2,"e","029"
"experiment",1,166,0.0758224803408,0.681913935278,9,0.1,3,3,"singles","even",0.262815952301,0.604084014893,2,"e","029"
"experiment",4,167,0.921461607523,0.0701090184989,9,0.1,1,3,"singles","even",0.494812965393,0.731324911118,2,"o","029"
"experiment",2,168,0.75544096829,-0.365576815669,7,0.1,1,13,"pairs","odd",1.83076691628,4.31664299965,2,"e","029"
"experiment",3,169,0.571108770742,0.843829748958,7,0.1,4,13,"pairs","odd",0.742897987366,1.54686307907,8,"o","029"
"experiment",3,170,-0.686952496724,-0.979226377811,3,0.1,6,13,"pairs","even",0.934895038605,0.516384840012,2,"e","029"
"experiment",3,171,0.789592581327,0.265999731047,3,0.1,3,13,"pairs","even",0.74998497963,0.844840049744,2,"e","029"
"experiment",3,172,-0.299341575876,0.637045221474,3,0.1,5,13,"pairs","odd",0.598831892014,0.796342134476,8,"o","029"
"experiment",1,173,0.93536756026,-0.16216390018,3,0.1,2,13,"pairs","even",0.709936141968,1.61042785645,2,"o","029"
"experiment",1,174,-0.919542514089,-0.0638617774423,3,0.1,4,13,"pairs","odd",0.685986995697,0.941456079483,8,"e","029"
"experiment",2,175,-0.0558558723758,0.47241057655,7,0.1,6,13,"pairs","even",2.60684704781,0.682638168335,2,"e","029"
"experiment",2,176,0.553904741705,0.224329573389,3,0.1,2,13,"pairs","odd",0.430769920349,0.976248979568,8,"o","029"
"experiment",2,177,0.2196180414,0.313281788191,7,0.1,1,13,"pairs","odd",1.62283396721,1.22321105003,8,"e","029"
"experiment",2,178,-0.636170887882,0.737665226408,7,0.1,3,13,"pairs","even",1.26999998093,0.861338853836,2,"o","029"
"experiment",3,179,0.375282537466,0.428825108095,3,0.1,5,13,"pairs","even",0.574606895447,0.815397024155,2,"e","029"
"experiment",1,180,0.743979288952,-0.825320993437,9,0.1,1,0,"quadruplet","even",0.542776107788,4.16582512856,8,"e","029"
"experiment",4,181,0.0118676529943,0.899930500996,9,0.1,4,0,"quadruplet","odd",0.862884998322,0.769547939301,2,"o","029"
"experiment",3,182,0.860472397266,-0.012568741665,9,0.1,5,0,"quadruplet","even",0.654820203781,0.496627092361,8,"e","029"
"experiment",3,183,-0.742431116195,0.727277387192,5,0.1,3,0,"quadruplet","odd",0.438884019852,0.934711933136,8,"e","029"
"experiment",3,184,-0.64421408145,-0.311911928134,3,0.1,6,0,"quadruplet","even",1.34286999702,0.750737905502,2,"e","029"
"experiment",2,185,0.111562654167,0.812262087314,9,0.1,2,0,"quadruplet","even",0.822804927826,0.920330047607,4,"o","029"
"experiment",2,186,0.423089024989,0.413780627339,3,0.1,1,0,"quadruplet","odd",0.958030939102,1.65124106407,8,"e","029"
"experiment",3,187,-0.182136224631,0.980631479555,5,0.1,3,0,"quadruplet","odd",0.670882940292,1.25622797012,2,"o","029"
"experiment",3,188,0.316226135809,0.796746464514,3,0.1,4,0,"quadruplet","odd",2.53395414352,1.50953793526,4,"o","029"
"experiment",4,189,0.244460686974,-0.322239005463,7,0.1,5,0,"quadruplet","even",0.750154018402,0.597200155258,4,"e","029"
"experiment",4,190,-0.160101335487,0.0218670034478,5,0.1,6,0,"quadruplet","odd",0.502783060074,1.58601307869,6,"o","029"
"experiment",2,191,0.0068645154021,-0.42013288731,7,0.1,2,0,"quadruplet","even",1.99876093864,2.06008791924,4,"e","029"
"experiment",2,192,0.661365591992,-0.893400840766,3,0.1,2,26,"pairs","even",3.20685100555,1.01109600067,8,"o","029"
"experiment",1,193,0.0388398606211,-0.221204831748,9,0.1,1,26,"pairs","even",0.278110027313,1.14119815826,8,"e","029"
"experiment",4,194,-0.502106323032,0.140752436267,9,0.1,5,26,"pairs","odd",1.19804000854,1.08752799034,8,"o","029"
"experiment",4,195,-0.476062501013,0.0555260049885,9,0.1,4,26,"pairs","odd",0.701704025269,1.16681003571,4,"o","029"
"experiment",1,196,0.855597275722,0.00193549685382,9,0.1,3,26,"pairs","odd",0.622071027756,0.839264154434,4,"e","029"
"experiment",1,197,-0.96613532845,0.253878543293,3,0.1,6,26,"pairs","even",0.526886940002,0.563264846802,8,"e","029"
"experiment",2,198,-0.0758122627474,-0.881954951586,9,0.1,6,26,"pairs","even",0.470825910568,0.523556947708,8,"e","029"
"experiment",2,199,-0.148875424196,-0.147898494415,3,0.1,1,26,"pairs","odd",0.86265206337,3.0118727684,8,"e","029"
"experiment",2,200,0.801182951729,-0.73881434812,3,0.1,3,26,"pairs","even",0.54283618927,0.726916074753,4,"e","029"
"experiment",3,201,0.156553110841,-0.502106979821,3,0.1,5,26,"pairs","even",0.454707860947,0.951236963272,4,"e","029"
"experiment",2,202,-0.905379827983,-0.88978397689,3,0.1,2,26,"pairs","odd",0.909925937653,0.657067060471,4,"e","029"
"experiment",3,203,0.121483736927,0.759469948977,3,0.1,4,26,"pairs","odd",1.12617397308,0.720514059067,8,"o","029"
"experiment",3,204,-0.206935649105,0.382831895828,5,0.1,6,5,"singles","odd",2.67083001137,1.17814612389,4,"o","029"
"experiment",3,205,0.166105381304,-0.760322988338,5,0.1,5,5,"singles","odd",0.63881111145,0.634828805923,4,"o","029"
"experiment",1,206,-0.907988617352,0.339651389377,5,0.1,1,5,"singles","even",0.270071029663,0.980600833893,4,"e","029"
"experiment",1,207,-0.833507942922,0.307811367767,5,0.1,2,5,"singles","even",0.701982975006,1.35087203979,4,"o","029"
"experiment",4,208,-0.127078116522,0.228004422234,5,0.1,4,5,"singles","odd",0.421969890594,1.22488617897,4,"o","029"
"experiment",4,209,0.180684665804,0.802397066509,5,0.1,3,5,"singles","odd",0.414708852768,1.88709402084,4,"o","029"
"experiment",3,210,0.799911336162,-0.819619099169,5,0.1,3,5,"singles","even",0.430882930756,0.994488954544,4,"e","029"
"experiment",3,211,0.0251461114447,0.134145364849,5,0.1,6,5,"singles","even",0.262870073318,0.513790130615,4,"e","029"
"experiment",4,212,-0.601340066429,0.636650142592,5,0.1,5,5,"singles","odd",0.478858947754,0.925912857056,4,"o","029"
"experiment",4,213,-0.523361138842,0.0960719888717,5,0.1,2,5,"singles","even",0.806136131287,0.685920000076,4,"e","029"
"experiment",2,214,0.451029022525,0.182355981589,5,0.1,1,5,"singles","even",0.454740047455,2.97392416,4,"e","029"
"experiment",3,215,0.439621685366,-0.879937367615,5,0.1,4,5,"singles","odd",0.47808599472,1.08408594131,4,"o","029"
"experiment",4,216,-0.533037468723,-0.903092221063,9,0.1,6,0,"quadruplet","even",2.92688298225,0.793428897858,8,"e","029"
"experiment",3,217,0.468042925245,0.766442609061,3,0.1,4,0,"quadruplet","even",1.34291696548,0.552655935287,4,"e","029"
"experiment",2,218,0.639582515011,-0.917604378423,3,0.1,3,0,"quadruplet","odd",1.31007099152,0.630320072174,8,"o","029"
"experiment",1,219,0.108317676604,0.873804994366,9,0.1,2,0,"quadruplet","odd",0.30203294754,0.753318071365,6,"e","029"
"experiment",1,220,0.396845363241,-0.810077316366,5,0.1,1,0,"quadruplet","even",1.03094005585,0.366734981537,4,"e","029"
"experiment",3,221,0.262601510382,0.674393088919,7,0.1,5,0,"quadruplet","odd",0.501919031143,1.97761082649,4,"o","029"
"experiment",1,222,-0.0965548527377,0.0411784499484,5,0.1,1,0,"quadruplet","odd",0.446859836578,0.39927983284,6,"o","029"
"experiment",4,223,0.415703503598,-0.879266177328,9,0.1,4,0,"quadruplet","even",0.79803609848,1.18798494339,6,"e","029"
"experiment",3,224,0.157366423633,0.917342979701,3,0.1,5,0,"quadruplet","even",0.57476401329,0.656138896942,4,"e","029"
"experiment",4,225,-0.396469640858,0.0617651224136,5,0.1,6,0,"quadruplet","even",0.574919939041,0.704365968704,8,"e","029"
"experiment",3,226,0.967360477241,-0.454537178753,5,0.1,2,0,"quadruplet","odd",1.53482604027,0.645716905594,4,"o","029"
"experiment",1,227,-0.220672935353,-0.782055666851,3,0.1,3,0,"quadruplet","odd",1.07876515388,1.1970448494,2,"e","029"
"experiment",4,228,0.402623062628,0.57216521142,5,0.1,6,27,"pairs","even",0.439040899277,1.14576292038,8,"e","029"
"experiment",2,229,-0.0452862530568,0.453302138969,5,0.1,2,27,"pairs","odd",0.678045988083,0.666981935501,8,"o","029"
"experiment",4,230,-0.441454883777,-0.556937134501,5,0.1,5,27,"pairs","odd",0.614792823792,1.05907917023,8,"o","029"
"experiment",4,231,-0.127778119336,0.325625630434,5,0.1,4,27,"pairs","even",0.4461581707,0.565423965454,8,"e","029"
"experiment",1,232,-0.70789059441,-0.830506461312,5,0.1,1,27,"pairs","even",1.0468609333,0.720087051392,4,"o","029"
"experiment",1,233,-0.0899974211668,0.763246100346,7,0.1,3,27,"pairs","odd",0.34210395813,0.306940078735,4,"o","029"
"experiment",1,234,-0.851584157418,-0.448184993279,5,0.1,2,27,"pairs","odd",0.246807813644,1.25862288475,4,"e","029"
"experiment",2,235,0.23741642547,-0.776658903578,7,0.1,4,27,"pairs","even",0.310018062592,1.77784585953,4,"e","029"
"experiment",3,236,0.338917181171,0.760468986215,7,0.1,5,27,"pairs","even",0.990896940231,0.744584083557,4,"e","029"
"experiment",3,237,0.272673516664,-0.0979303443513,5,0.1,6,27,"pairs","odd",0.974060058594,0.549278974533,8,"o","029"
"experiment",2,238,0.95379187929,0.2152080106,7,0.1,3,27,"pairs","odd",1.09392786026,3.67728900909,8,"o","029"
"experiment",2,239,0.743697681505,-0.768829897249,5,0.1,1,27,"pairs","even",1.03015184402,3.16641998291,4,"e","029"
"experiment",3,240,-0.0478954775896,-0.528237281389,7,0.1,4,2,"singles","odd",3.00675606728,2.42726707458,2,"o","029"
"experiment",3,241,0.122668702244,-0.252668970895,7,0.1,3,2,"singles","odd",1.05393600464,1.92990708351,2,"o","029"
"experiment",4,242,-0.394086853843,-0.985647145462,7,0.1,5,2,"singles","even",0.870882034302,1.0849070549,2,"e","029"
"experiment",4,243,0.600859660588,0.34943756897,7,0.1,6,2,"singles","even",0.366776943207,0.708470106125,2,"e","029"
"experiment",2,244,0.0841158824042,0.142731394049,7,0.1,1,2,"singles","odd",0.614881038666,1.28642416,2,"o","029"
"experiment",1,245,0.283600259663,-0.94330452555,7,0.1,2,2,"singles","odd",0.294825077057,0.521084070206,2,"e","029"
"experiment",2,246,0.289075723399,0.0492238729261,7,0.1,5,2,"singles","even",1.01477813721,3.4894387722,2,"e","029"
"experiment",3,247,0.639856064928,-0.0208949991485,7,0.1,6,2,"singles","even",0.702837944031,1.00427007675,2,"e","029"
"experiment",3,248,-0.645833620356,0.0577544402177,7,0.1,4,2,"singles","odd",0.430104017258,0.619945049286,2,"o","029"
"experiment",2,249,-0.882522340771,-0.821905281875,7,0.1,1,2,"singles","even",0.678143978119,0.491677999496,2,"o","029"
"experiment",2,250,-0.78656392976,-0.381841913509,7,0.1,2,2,"singles","even",0.534802913666,0.801327943802,2,"e","029"
"experiment",2,251,0.06418436211,0.549217295265,7,0.1,3,2,"singles","odd",0.758774995804,0.408882141113,2,"e","029"
"experiment",1,252,0.676961352746,0.81757642151,9,0.1,1,29,"pairs","odd",0.478904008865,0.399043083191,4,"e","029"
"experiment",1,253,0.459280592843,0.193398886841,7,0.1,2,29,"pairs","even",1.45486187935,0.881871938705,8,"o","029"
"experiment",4,254,0.34074025502,0.721702570189,7,0.1,6,29,"pairs","even",0.798854112625,0.647037029266,8,"e","029"
"experiment",2,255,0.908701652794,0.892476222164,9,0.1,3,29,"pairs","odd",0.454819917679,0.823938131332,4,"e","029"
"experiment",2,256,0.605529021184,0.3895880963,7,0.1,5,29,"pairs","even",3.75088500977,1.39763402939,8,"e","029"
"experiment",4,257,-0.279010246629,-0.387475401029,7,0.1,4,29,"pairs","odd",1.09487080574,0.643357992172,8,"o","029"
"experiment",2,258,-0.00920553198568,-0.949811606159,7,0.1,4,29,"pairs","even",0.358839035034,0.649966955185,8,"e","029"
"experiment",3,259,-0.167005377407,-0.754828522562,9,0.1,3,29,"pairs","odd",0.742747068405,0.879513978958,8,"o","029"
"experiment",2,260,-0.654328248992,0.301387653547,9,0.1,1,29,"pairs","even",0.630046129227,0.696037054062,8,"e","029"
"experiment",3,261,-0.544769691842,-0.451528123853,9,0.1,5,29,"pairs","even",0.534666061401,1.71729898453,4,"e","029"
"experiment",2,262,0.845823167151,0.882709992902,7,0.1,6,29,"pairs","odd",0.742703914642,8.21911692619,8,"o","029"
"experiment",2,263,-0.881404132247,-0.362338952816,9,0.1,2,29,"pairs","odd",0.390625,0.868604898453,4,"e","029"
"experiment",2,264,0.82910944498,-0.0996887887979,3,0.1,4,4,"singles","odd",2.92678809166,1.50368094444,4,"o","029"
"experiment",2,265,-0.470874971301,-0.8293987954,3,0.1,5,4,"singles","odd",6.9428229332,1.3332798481,4,"o","029"
"experiment",1,266,0.695365041223,0.443884368841,3,0.1,2,4,"singles","even",0.622920036316,0.824577093124,4,"e","029"
"experiment",1,267,-0.878470346281,-0.592912550387,3,0.1,1,4,"singles","even",0.89480805397,1.62160587311,4,"o","029"
"experiment",3,268,-0.971461530171,0.508932988196,3,0.1,3,4,"singles","even",0.774841070175,0.589427947998,4,"e","029"
"experiment",3,269,0.972681811144,-0.0392828169844,3,0.1,6,4,"singles","odd",4.02997994423,1.75411891937,4,"o","029"
"experiment",3,270,-0.344356196064,0.764718299866,3,0.1,3,4,"singles","odd",0.766856908798,0.909045934677,4,"o","029"
"experiment",2,271,0.30430108385,-0.375661177862,3,0.1,1,4,"singles","even",1.27800107002,1.03798294067,4,"e","029"
"experiment",3,272,0.138812199178,-0.779321507137,3,0.1,4,4,"singles","even",1.08591890335,1.53532600403,4,"e","029"
"experiment",3,273,-0.371364915978,-0.210074424132,3,0.1,5,4,"singles","odd",1.97476816177,2.35013198853,4,"o","029"
"experiment",2,274,0.399452260555,-0.873533231776,3,0.1,2,4,"singles","even",0.32596206665,0.979145050049,4,"e","029"
"experiment",3,275,-0.962936422766,0.800621910781,3,0.1,6,4,"singles","odd",0.726779222488,3.06055116653,4,"o","029"
"experiment",2,276,-0.645769079566,-0.13590505382,7,0.1,3,0,"quadruplet","odd",0.47886800766,1.09059000015,2,"e","029"
"experiment",1,277,-0.226178568335,0.356237269022,7,0.1,1,0,"quadruplet","even",0.654761075974,2.39706301689,8,"o","029"
"experiment",4,278,0.715366586009,-0.896918859817,9,0.1,6,0,"quadruplet","odd",0.470775127411,0.764346122742,6,"o","029"
"experiment",4,279,0.804749915501,0.0591406168922,3,0.1,5,0,"quadruplet","even",1.31886315346,0.632091999054,6,"e","029"
"experiment",4,280,-0.229463780428,-0.5731533596,7,0.1,4,0,"quadruplet","even",1.51081109047,1.38435697556,2,"e","029"
"experiment",2,281,0.527370065419,0.596190451947,5,0.1,2,0,"quadruplet","odd",1.69399094582,0.794468164444,6,"e","029"
"experiment",3,282,0.870499669984,-0.718381922249,3,0.1,5,0,"quadruplet","even",0.542788982391,0.695363044739,8,"e","029"
"experiment",1,283,-0.821813844542,-0.335100211865,3,0.1,1,0,"quadruplet","odd",1.39865612984,2.46751618385,4,"e","029"
"experiment",3,284,0.3512797446,-0.934578868836,5,0.1,4,0,"quadruplet","odd",0.478804111481,0.619771003723,8,"o","029"
"experiment",1,285,0.165024038556,-0.482002077015,9,0.1,3,0,"quadruplet","even",0.278750181198,0.519824981689,8,"e","029"
"experiment",1,286,-0.285885013785,-0.08070202918,7,0.1,2,0,"quadruplet","odd",0.350147008896,0.770784854889,2,"e","029"
"experiment",4,287,0.765878037618,0.566125405828,7,0.1,6,0,"quadruplet","even",0.654143095016,0.733101844788,2,"e","029"
"experiment",3,288,0.33696727299,0.464072436821,9,0.1,6,11,"singles","odd",3.9028608799,1.74895095825,6,"o","029"
"experiment",3,289,0.542716147381,0.202385982461,9,0.1,5,11,"singles","even",0.613971948624,1.12416291237,6,"e","029"
"experiment",3,290,-0.826839054679,0.888205561877,9,0.1,4,11,"singles","even",0.542821884155,0.777950048447,6,"e","029"
"experiment",2,291,-0.769271475646,-0.825187624063,9,0.1,2,11,"singles","odd",0.341883897781,1.40192008018,6,"o","029"
"experiment",3,292,0.952918233756,0.817055823623,9,0.1,3,11,"singles","even",0.726902008057,1.43761897087,6,"e","029"
"experiment",1,293,0.322118600645,0.812113008875,9,0.1,1,11,"singles","odd",0.246836185455,1.05131077766,6,"o","029"
"experiment",1,294,0.814357810887,0.233606396121,9,0.1,2,11,"singles","odd",0.326832056046,0.970841169357,6,"o","029"
"experiment",3,295,0.882060570635,0.00817417539262,9,0.1,4,11,"singles","even",0.422816991806,1.33078408241,6,"e","029"
"experiment",1,296,-0.667369621296,-0.717892519091,9,0.1,1,11,"singles","even",0.326267957687,0.309888124466,6,"o","029"
"experiment",3,297,-0.322678765707,0.74311459608,9,0.1,5,11,"singles","even",0.502696990967,0.677432060242,6,"e","029"
"experiment",2,298,0.329716156183,0.093444468901,9,0.1,3,11,"singles","odd",0.422717809677,2.26035904884,6,"o","029"
"experiment",4,299,0.324067409225,-0.225015522526,9,0.1,6,11,"singles","odd",0.414001941681,1.29120993614,6,"o","029"
"experiment",3,300,-0.429526221327,0.146231277683,5,0.1,5,6,"pairs","odd",0.518831014633,0.900493144989,6,"o","029"
"experiment",3,301,0.63980057292,-0.0950368177487,3,0.1,6,6,"pairs","odd",0.28585600853,1.58701109886,2,"o","029"
"experiment",1,302,-0.257379534239,-0.649100612613,5,0.1,1,6,"pairs","even",0.678805112839,0.802397012711,2,"e","029"
"experiment",1,303,0.721543238346,-0.712654266447,5,0.1,3,6,"pairs","even",0.382921934128,1.12705516815,2,"o","029"
"experiment",3,304,-0.249201392754,0.539099309618,5,0.1,4,6,"pairs","even",1.17474794388,2.14534401894,2,"e","029"
"experiment",1,305,-0.424640780584,-0.858748295822,5,0.1,2,6,"pairs","odd",1.77393698692,2.09194421768,6,"o","029"
"experiment",3,306,0.214797569544,-0.89208527424,3,0.1,6,6,"pairs","odd",0.790660858154,2.08019304276,6,"o","029"
"experiment",2,307,-0.727826073198,0.477860029845,5,0.1,1,6,"pairs","even",0.62282204628,1.53759384155,2,"o","029"
"experiment",2,308,0.0878422290021,-0.141806318017,5,0.1,3,6,"pairs","odd",0.494693994522,1.60656094551,2,"e","029"
"experiment",1,309,-0.336941034575,-0.852652511553,5,0.1,2,6,"pairs","even",0.518821001053,4.63497686386,6,"e","029"
"experiment",3,310,0.526027933007,0.381718250212,3,0.1,4,6,"pairs","odd",0.597949981689,1.80243015289,6,"o","029"
"experiment",3,311,-0.384423689188,-0.0584510534659,5,0.1,5,6,"pairs","even",0.406733036041,0.702991008759,2,"e","029"
"experiment",2,312,-0.340197083887,-0.74831696089,7,0.1,4,0,"quadruplet","even",4.71866106987,1.5479581356,8,"e","029"
"experiment",2,313,0.518076866772,0.948576683251,9,0.1,2,0,"quadruplet","odd",0.397948026657,0.927071094513,8,"o","029"
"experiment",1,314,0.652643231881,0.174906222182,5,0.1,1,0,"quadruplet","odd",1.12684392929,1.40088295937,6,"o","029"
"experiment",3,315,0.73981910239,0.267976228641,9,0.1,6,0,"quadruplet","even",1.10981011391,2.13430595398,8,"e","029"
"experiment",2,316,0.268275807696,-0.86358335805,5,0.1,3,0,"quadruplet","even",0.541980028152,1.80015683174,4,"o","029"
"experiment",4,317,0.909181640821,-0.0594424609852,7,0.1,5,0,"quadruplet","odd",0.421988010406,1.63198804855,6,"o","029"
"experiment",2,318,0.71184540155,-0.580596329271,7,0.1,4,0,"quadruplet","even",1.30196285248,1.50363206863,6,"e","029"
"experiment",2,319,-0.867903486287,-0.522927433184,7,0.1,1,0,"quadruplet","odd",1.00663518906,2.69644498825,8,"e","029"
"experiment",4,320,-0.461744904566,-0.072902781265,7,0.1,6,0,"quadruplet","even",0.390010118484,0.732296943665,6,"e","029"
"experiment",1,321,0.495140740039,-0.323084959737,9,0.1,2,0,"quadruplet","even",0.405990123749,0.672410011292,8,"e","029"
"experiment",2,322,-0.140156447157,-0.668503098028,7,0.1,3,0,"quadruplet","odd",0.525947093964,0.885968923569,6,"o","029"
"experiment",3,323,0.856472803732,0.744134025417,7,0.1,5,0,"quadruplet","odd",0.694779157639,0.727884054184,4,"o","029"
"experiment",2,324,-0.887691660016,-0.248691691692,5,0.1,2,3,"pairs","even",1.09483981133,1.15426397324,4,"e","029"
"experiment",3,325,-0.73640156481,0.8841769318,7,0.1,6,3,"pairs","odd",0.846128940582,2.42956399918,4,"o","029"
"experiment",1,326,-0.0126861105322,0.52685957155,5,0.1,3,3,"pairs","odd",0.598855018616,0.46173620224,2,"e","029"
"experiment",3,327,-0.620051892927,0.0659310738014,5,0.1,4,3,"pairs","even",1.22999882698,0.740225791931,2,"e","029"
"experiment",2,328,0.493123547569,0.903816743103,5,0.1,1,3,"pairs","odd",0.622063875198,0.760528802872,4,"o","029"
"experiment",2,329,-0.196688879063,-0.469270928999,5,0.1,5,3,"pairs","even",1.19889783859,0.714351892471,4,"e","029"
"experiment",1,330,0.50469932602,-0.843703303248,5,0.1,1,3,"pairs","odd",0.478039979935,0.472934961319,2,"e","029"
"experiment",1,331,-0.909558017659,-0.0761645291062,7,0.1,2,3,"pairs","even",2.02211093903,0.40364408493,2,"o","029"
"experiment",4,332,-0.328597548483,0.449009211154,7,0.1,3,3,"pairs","odd",0.774860143661,0.956100940704,2,"o","029"
"experiment",4,333,-0.514656634939,-0.812248405864,5,0.1,6,3,"pairs","even",0.629953145981,1.23456597328,2,"e","029"
"experiment",4,334,0.290109096369,0.885172084191,5,0.1,5,3,"pairs","odd",0.454857110977,1.093542099,2,"o","029"
"experiment",3,335,0.674816268799,-0.862190384612,7,0.1,4,3,"pairs","even",0.718802928925,0.662184000015,2,"e","029"
"experiment",2,336,-0.472384152328,-0.895524982526,9,0.1,4,0,"quadruplet","even",0.494886875153,1.107681036,2,"e","029"
"experiment",3,337,-0.992372990125,0.00218309407497,7,0.1,3,0,"quadruplet","odd",0.454862117767,0.888963222504,2,"o","029"
"experiment",2,338,-0.149605004599,-0.839281916553,7,0.1,2,0,"quadruplet","odd",0.637928962708,1.68132591248,4,"o","029"
"experiment",1,339,0.356751111999,0.111598346915,5,0.1,1,0,"quadruplet","even",0.214861869812,0.832067012787,2,"e","029"
"experiment",2,340,0.886129488072,-0.63185095578,9,0.1,5,0,"quadruplet","even",0.462807893753,0.692237854004,2,"e","029"
"experiment",2,341,-0.626745925753,-0.939974719045,7,0.1,6,0,"quadruplet","odd",1.1347990036,0.990385055542,6,"o","029"
"experiment",1,342,-0.374981246976,-0.0962371719134,9,0.1,3,0,"quadruplet","even",0.358721017838,0.629639863968,6,"e","029"
"experiment",1,343,0.536025494423,-0.940574808247,3,0.1,1,0,"quadruplet","odd",2.97472500801,0.527146100998,2,"o","029"
"experiment",1,344,0.811207958694,0.359914402437,5,0.1,5,0,"quadruplet","odd",0.565976858139,2.85025811195,8,"o","029"
"experiment",1,345,0.583457920681,-0.931029543552,3,0.1,2,0,"quadruplet","odd",0.365978002548,0.501657009125,8,"e","029"
"experiment",3,346,-0.380054629402,-0.274779831345,5,0.1,4,0,"quadruplet","even",0.614103078842,0.536933898926,8,"e","029"
"experiment",3,347,0.545696829049,0.542680408545,3,0.1,6,0,"quadruplet","even",0.59797000885,0.667924880981,4,"e","029"
"experiment",2,348,0.681229129132,0.0782146738782,7,0.1,5,10,"singles","even",0.374701976776,0.762676954269,6,"e","029"
"experiment",1,349,-0.517974046078,-0.290408853075,7,0.1,3,10,"singles","odd",1.84600901604,1.25432395935,6,"e","029"
"experiment",3,350,-0.922450367927,-0.750892899333,7,0.1,6,10,"singles","even",0.702088117599,0.714475870132,6,"e","029"
"experiment",3,351,0.622605912025,-0.650521848491,7,0.1,4,10,"singles","odd",0.350037097931,1.47486495972,6,"o","029"
"experiment",2,352,-0.588923586578,-0.8267130453,7,0.1,2,10,"singles","even",0.229947805405,2.75200414658,6,"e","029"
"experiment",1,353,0.644694332012,-0.917764150592,7,0.1,1,10,"singles","odd",0.598843812943,0.887503862381,6,"o","029"
"experiment",3,354,-0.502703920169,0.23888133897,7,0.1,4,10,"singles","odd",0.573995113373,0.830181837082,6,"o","029"
"experiment",1,355,-0.422201164215,-0.148466915365,7,0.1,1,10,"singles","even",0.326733827591,0.422024965286,6,"e","029"
"experiment",2,356,0.81479937379,0.843697201601,7,0.1,2,10,"singles","odd",0.82997584343,1.53580307961,6,"o","029"
"experiment",4,357,0.84746946774,-0.00393182495398,7,0.1,5,10,"singles","even",2.30212187767,0.351418972015,6,"e","029"
"experiment",4,358,-0.325562818197,-0.795616270277,7,0.1,6,10,"singles","even",0.366773843765,0.386590957642,6,"e","029"
"experiment",2,359,-0.344171901765,0.526995106833,7,0.1,3,10,"singles","odd",1.21396708488,1.94961690903,6,"o","029"
"experiment",3,360,0.581997860696,0.572635146299,3,0.1,6,8,"pairs","even",1.23076915741,2.05121588707,6,"e","029"
"experiment",1,361,-0.498592389773,0.359606402644,9,0.1,2,8,"pairs","odd",0.758763074875,0.80268406868,6,"o","029"
"experiment",3,362,0.0433754106354,0.616252606475,3,0.1,4,8,"pairs","odd",0.453881978989,1.16322398186,2,"o","029"
"experiment",3,363,0.27851026641,0.697397794954,9,0.1,1,8,"pairs","even",0.390118122101,0.432193994522,2,"e","029"
"experiment",3,364,-0.320552800567,0.99040967045,3,0.1,5,8,"pairs","odd",0.934058904648,0.570964097977,2,"o","029"
"experiment",2,365,-0.945843117624,-0.606435856097,9,0.1,3,8,"pairs","even",0.798176050186,0.633044958115,2,"e","029"
"experiment",3,366,-0.596917733659,-0.889048201896,9,0.1,4,8,"pairs","even",0.574841022491,0.550736188889,2,"e","029"
"experiment",3,367,0.296749157062,0.790281039601,3,0.1,6,8,"pairs","odd",0.534732818604,0.635110139847,6,"o","029"
"experiment",3,368,0.144740760086,-0.804822327818,9,0.1,5,8,"pairs","odd",0.502977132797,1.10622096062,2,"o","029"
"experiment",1,369,0.0935192046831,0.307946754709,9,0.1,2,8,"pairs","even",0.277736902237,0.769286155701,2,"e","029"
"experiment",1,370,0.292916484807,-0.894988379376,9,0.1,3,8,"pairs","odd",0.421809911728,0.837428808212,6,"e","029"
"experiment",1,371,-0.571765583332,0.625449440528,3,0.1,1,8,"pairs","even",0.661706924438,0.335586071014,6,"o","029"
"experiment",2,372,0.527642395454,-0.250303188301,3,0.1,6,8,"singles","odd",0.374663114548,1.62185001373,6,"o","029"
"experiment",3,373,-0.0272855164777,0.351797546854,3,0.1,4,8,"singles","odd",0.942004919052,0.697178125381,6,"o","029"
"experiment",2,374,0.696943788527,-0.199537669979,3,0.1,2,8,"singles","even",0.350026130676,0.994647979736,6,"e","029"
"experiment",3,375,-0.697099363787,-0.760983704522,3,0.1,3,8,"singles","even",0.422870874405,0.791337966919,6,"e","029"
"experiment",1,376,0.591401125314,-0.843877515326,3,0.1,1,8,"singles","odd",0.878716945648,1.74267196655,6,"o","029"
"experiment",2,377,0.713473008758,-0.996149138709,3,0.1,5,8,"singles","odd",0.318088769913,0.907793045044,6,"o","029"
"experiment",4,378,0.707291612663,-0.108579524387,3,0.1,6,8,"singles","even",0.918745994568,0.729554891586,6,"e","029"
"experiment",3,379,0.228666425489,-0.770409701082,3,0.1,4,8,"singles","even",0.286013126373,0.890280008316,6,"e","029"
"experiment",2,380,0.215039599828,-0.168723275196,3,0.1,3,8,"singles","odd",1.02202010155,1.31787991524,6,"o","029"
"experiment",2,381,0.877365999951,0.298381527487,3,0.1,1,8,"singles","even",0.933987855911,0.901581048965,6,"e","029"
"experiment",4,382,0.410268577447,-0.302421597954,3,0.1,5,8,"singles","even",0.45485496521,1.13918590546,6,"e","029"
"experiment",2,383,-0.322612384393,-0.288099671618,3,0.1,2,8,"singles","odd",0.605945825577,5.5024638176,6,"o","029"
"experiment",3,384,0.723409577181,0.890353337584,3,0.1,5,0,"quadruplet","even",1.02288198471,0.870181083679,2,"e","029"
"experiment",1,385,-0.949035564468,0.197695212515,7,0.1,2,0,"quadruplet","odd",0.478123903275,0.563051939011,6,"o","029"
"experiment",3,386,0.657944534639,0.0752100315326,7,0.1,3,0,"quadruplet","odd",0.437771081924,1.26179790497,8,"o","029"
"experiment",4,387,-0.647834249242,-0.827114161904,5,0.1,6,0,"quadruplet","even",0.342907905579,0.637815952301,6,"e","029"
"experiment",4,388,-0.428216992981,-0.530107998637,9,0.1,4,0,"quadruplet","odd",0.414538145065,1.63398504257,4,"o","029"
"experiment",1,389,0.9855750244,-0.692044182657,5,0.1,1,0,"quadruplet","odd",0.270020961761,0.998620986938,2,"o","029"
"experiment",3,390,-0.0318227664776,0.172481336762,5,0.1,4,0,"quadruplet","even",0.334925889969,0.689407110214,8,"e","029"
"experiment",1,391,0.970707982556,-0.650267373149,5,0.1,1,0,"quadruplet","even",0.310038089752,0.40686583519,6,"o","029"
"experiment",2,392,-0.959172066308,-0.223530918344,3,0.1,2,0,"quadruplet","even",1.64683818817,8.47147893906,4,"e","029"
"experiment",1,393,-0.707895160138,0.235329541512,7,0.1,3,0,"quadruplet","odd",0.462800979614,0.470723867416,6,"o","029"
"experiment",3,394,0.95003827897,0.191856175254,5,0.1,6,0,"quadruplet","even",0.830850839615,0.656455039978,8,"e","029"
"experiment",2,395,0.938915909916,0.765814543078,7,0.1,5,0,"quadruplet","odd",1.28681302071,1.08465123177,2,"o","029"
"experiment",3,396,-0.331357948085,0.693395713731,9,0.1,5,22,"pairs","odd",1.16679000854,2.78969907761,4,"o","029"
"experiment",1,397,0.20668541037,-0.149295123605,9,0.1,2,22,"pairs","even",0.502887964249,1.56401801109,4,"e","029"
"experiment",3,398,0.590647864882,0.520233256641,9,0.1,3,22,"pairs","even",0.438905954361,0.673968076706,4,"e","029"
"experiment",2,399,0.477772471215,-0.450495280619,9,0.1,4,22,"pairs","odd",0.814073801041,0.994817972183,4,"o","029"
"experiment",4,400,0.514512497436,-0.0694989227282,9,0.1,6,22,"pairs","odd",0.67081618309,1.01318383217,6,"o","029"
"experiment",2,401,0.696959547257,0.774505230083,5,0.1,1,22,"pairs","odd",1.029971838,3.3326318264,6,"e","029"
"experiment",1,402,-0.669051817543,0.353552033801,5,0.1,1,22,"pairs","even",0.98277592659,0.984851837158,6,"o","029"
"experiment",3,403,0.120574232883,-0.20103517858,5,0.1,3,22,"pairs","even",0.310845851898,0.966741085052,6,"e","029"
"experiment",3,404,0.45998895539,0.176164691013,9,0.1,5,22,"pairs","odd",0.33398604393,0.539381980896,6,"o","029"
"experiment",3,405,0.0855962528295,0.255378552587,5,0.1,6,22,"pairs","odd",0.605786085129,1.31564307213,6,"o","029"
"experiment",1,406,0.625113975324,-0.873959491221,5,0.1,2,22,"pairs","even",0.342925071716,1.30510592461,4,"o","029"
"experiment",3,407,0.86532199105,0.0913231551087,9,0.1,4,22,"pairs","even",0.565855026245,0.652215003967,4,"e","029"
"experiment",3,408,-0.934142622733,-0.630349702375,3,0.1,5,0,"quadruplet","even",0.318876981735,0.575721025467,4,"e","029"
"experiment",2,409,-0.579150150578,-0.147263760329,3,0.1,6,0,"quadruplet","even",0.358067989349,0.553467988968,4,"e","029"
"experiment",2,410,-0.379642241079,-0.790852590488,9,0.1,4,0,"quadruplet","odd",0.661719083786,1.5833671093,8,"e","029"
"experiment",2,411,-0.0751519123408,-0.90630931571,9,0.1,1,0,"quadruplet","odd",2.61410212517,2.00042510033,6,"o","029"
"experiment",2,412,-0.0355506559726,0.251742234316,5,0.1,2,0,"quadruplet","even",1.43086600304,3.05027008057,4,"e","029"
"experiment",2,413,0.209551447184,0.288345762026,9,0.1,3,0,"quadruplet","odd",1.44608592987,0.776278018951,6,"o","029"
"experiment",2,414,-0.722781708291,0.357252782042,7,0.1,6,0,"quadruplet","even",1.67814087868,0.532336950302,4,"e","029"
"experiment",1,415,-0.200891578923,-0.775012841325,9,0.1,2,0,"quadruplet","odd",0.51091504097,1.32055497169,8,"e","029"
"experiment",3,416,-0.831547792561,0.817308459782,3,0.1,5,0,"quadruplet","even",0.774899959564,0.660200119019,4,"e","029"
"experiment",3,417,-0.588019886923,0.18018346588,3,0.1,4,0,"quadruplet","odd",0.542838811874,0.737884044647,6,"o","029"
"experiment",3,418,0.733083529211,0.852163190024,9,0.1,3,0,"quadruplet","even",0.886763811111,0.630699872971,8,"e","029"
"experiment",2,419,0.949545918099,0.366090013265,7,0.1,1,0,"quadruplet","odd",0.622795820236,0.330404043198,6,"o","029"
"experiment",3,420,0.712268456056,0.706707470714,5,0.1,3,13,"singles","odd",1.43888306618,0.558189153671,8,"o","029"
"experiment",4,421,0.983125673369,0.935373881157,5,0.1,4,13,"singles","even",0.430047035217,0.682639122009,8,"e","029"
"experiment",1,422,-0.807952505592,-0.804645432431,5,0.1,2,13,"singles","even",0.253921985626,1.64665484428,8,"e","029"
"experiment",3,423,-0.548167937401,0.298384844802,5,0.1,5,13,"singles","odd",1.04671478271,1.99874401093,8,"o","029"
"experiment",3,424,0.285536530044,0.621233212036,5,0.1,6,13,"singles","odd",0.318858861923,0.636020183563,8,"o","029"
"experiment",1,425,-0.152349405529,-0.190548753725,5,0.1,1,13,"singles","even",0.494221925735,0.308588981628,8,"e","029"
"experiment",3,426,-0.00220243936589,0.189172866399,5,0.1,5,13,"singles","odd",1.13486599922,0.398288011551,8,"o","029"
"experiment",1,427,-0.0103088666522,0.982176850713,5,0.1,2,13,"singles","even",0.99826002121,0.424105882645,8,"o","029"
"experiment",1,428,0.963300070284,-0.225629016011,5,0.1,1,13,"singles","odd",0.613982915878,1.79194688797,8,"e","029"
"experiment",4,429,0.344398466179,0.0940288730209,5,0.1,6,13,"singles","even",0.54288315773,0.614380121231,8,"e","029"
"experiment",3,430,0.987600066266,0.942798230955,5,0.1,4,13,"singles","odd",8.63877797127,2.75354504585,8,"o","029"
"experiment",2,431,0.496361125878,0.403816329297,5,0.1,3,13,"singles","even",1.13484501839,0.519909858704,8,"e","029"
"experiment",2,432,0.74712870749,0.630667058627,5,0.1,1,0,"quadruplet","even",3.47888207436,0.733025074005,4,"e","029"
"experiment",4,433,-0.530551064213,-0.676112825347,7,0.1,6,0,"quadruplet","even",1.22219800949,0.475952863693,2,"e","029"
"experiment",1,434,-0.0728716915116,-0.398345398908,9,0.1,2,0,"quadruplet","odd",0.350862979889,1.17898702621,6,"e","029"
"experiment",3,435,-0.728738178722,0.0478192743112,3,0.1,5,0,"quadruplet","odd",0.590085983276,1.08528900146,2,"o","029"
"experiment",2,436,0.908660186685,-0.476267590707,5,0.1,3,0,"quadruplet","odd",0.486890077591,1.3680961132,2,"e","029"
"experiment",3,437,-0.328670740139,-0.605808013832,9,0.1,4,0,"quadruplet","even",1.91810798645,0.516369104385,2,"e","029"
"experiment",1,438,0.548893273207,-0.833375673491,7,0.1,1,0,"quadruplet","odd",1.0461230278,0.908466100693,2,"o","029"
"experiment",2,439,-0.402942978448,0.571490951125,9,0.1,4,0,"quadruplet","even",1.47799706459,2.14354395866,2,"e","029"
"experiment",3,440,0.750266524577,0.227584098434,7,0.1,6,0,"quadruplet","even",0.566782951355,0.589823007584,2,"e","029"
"experiment",3,441,0.889431899408,0.441036481132,9,0.1,3,0,"quadruplet","odd",1.03071689606,0.512042999268,8,"o","029"
"experiment",2,442,-0.785158869143,0.8271801321,3,0.1,2,0,"quadruplet","odd",0.734120130539,4.48760294914,4,"e","029"
"experiment",3,443,0.201224496043,-0.584756338206,9,0.1,5,0,"quadruplet","even",1.31804704666,0.49324297905,6,"e","029"
"experiment",3,444,0.315628611743,0.761177245513,5,0.1,6,30,"pairs","odd",4.98284697533,1.10224103928,6,"o","029"
"experiment",3,445,0.367199551963,0.901760899212,5,0.1,4,30,"pairs","even",0.654912948608,0.583148956299,8,"e","029"
"experiment",4,446,0.202761460936,0.998884540573,3,0.1,3,30,"pairs","odd",0.478853940964,1.57064986229,6,"o","029"
"experiment",4,447,-0.163857198993,0.961110075211,5,0.1,5,30,"pairs","even",0.942857027054,0.544026136398,8,"e","029"
"experiment",1,448,-0.647182121494,-0.42916013598,3,0.1,1,30,"pairs","odd",0.438060045242,0.62957406044,6,"o","029"
"experiment",2,449,-0.427962247569,-0.651376031997,5,0.1,2,30,"pairs","even",1.15879511833,1.01159882545,8,"e","029"
"experiment",2,450,0.492110049705,-0.0816600137636,3,0.1,4,30,"pairs","even",0.510764122009,2.27529096603,6,"e","029"
"experiment",1,451,0.77508191453,-0.238203762536,3,0.1,2,30,"pairs","odd",1.03795981407,0.347065925598,8,"o","029"
"experiment",3,452,-0.628443754975,-0.138212376688,5,0.1,6,30,"pairs","even",0.558011054993,0.518501996994,6,"e","029"
"experiment",3,453,0.140830744442,0.385861205591,3,0.1,3,30,"pairs","odd",1.23799395561,0.865036010742,8,"o","029"
"experiment",4,454,0.35885707625,0.708072260257,5,0.1,5,30,"pairs","even",0.454141139984,0.670300960541,6,"e","029"
"experiment",1,455,-0.522115112503,-0.150937590552,3,0.1,1,30,"pairs","odd",0.758043050766,0.406690120697,6,"e","029"
"experiment",1,456,0.360585414062,0.364767354931,5,0.1,5,1,"singles","even",1.34295105934,0.379593849182,2,"e","029"
"experiment",3,457,0.492846328303,-0.0232693666288,5,0.1,3,1,"singles","even",0.606781005859,3.53599309921,2,"e","029"
"experiment",1,458,-0.592035978146,-0.89360239267,5,0.1,2,1,"singles","odd",0.701808929443,1.8722679615,2,"o","029"
"experiment",1,459,0.899777546186,0.13785489062,5,0.1,1,1,"singles","odd",0.798732042313,2.38828897476,2,"e","029"
"experiment",3,460,0.992249167723,0.650080306326,5,0.1,4,1,"singles","odd",0.382811069489,0.670045852661,2,"o","029"
"experiment",4,461,0.968050566656,0.790951761535,5,0.1,6,1,"singles","even",0.374825000763,1.10004496574,2,"e","029"
"experiment",4,462,0.81836530993,-0.637331424305,5,0.1,5,1,"singles","even",0.381994962692,1.81156516075,2,"e","029"
"experiment",4,463,-0.386865108427,0.757972480807,5,0.1,4,1,"singles","odd",0.838158845901,0.811751842499,2,"o","029"
"experiment",2,464,0.354492554109,0.223049825657,5,0.1,2,1,"singles","odd",0.374763965607,1.97873497009,2,"o","029"
"experiment",3,465,0.680606674216,-0.712611077935,5,0.1,6,1,"singles","even",0.494869947433,1.24454593658,2,"e","029"
"experiment",3,466,-0.222015358436,0.266974749831,5,0.1,1,1,"singles","odd",3.47879290581,3.2758731842,2,"e","029"
"experiment",3,467,-0.816158967243,0.75363775386,5,0.1,3,1,"singles","even",0.645894050598,0.602765798569,2,"e","029"
"experiment",2,468,0.557775221601,-0.199613377833,5,0.1,4,0,"quadruplet","odd",1.13480091095,1.0645198822,2,"o","029"
"experiment",3,469,-0.265948344817,-0.173891056689,3,0.1,6,0,"quadruplet","odd",0.66995882988,0.74564909935,6,"o","029"
"experiment",2,470,0.944111304726,-0.894054112648,3,0.1,3,0,"quadruplet","even",0.4548869133,1.03920507431,2,"e","029"
"experiment",2,471,0.350811202349,-0.0410245057708,9,0.1,2,0,"quadruplet","even",0.654840230942,2.7943789959,2,"e","029"
"experiment",2,472,-0.310121241243,-0.88187301859,5,0.1,1,0,"quadruplet","even",0.477985858917,0.532831907272,2,"e","029"
"experiment",4,473,-0.487501928912,0.37150647914,3,0.1,5,0,"quadruplet","even",0.854950904846,2.79199409485,4,"e","029"
"experiment",3,474,0.0858741176113,0.479743000154,3,0.1,6,0,"quadruplet","odd",1.50993704796,0.618443965912,8,"o","029"
"experiment",1,475,0.833290901256,0.889193286352,3,0.1,2,0,"quadruplet","odd",0.830103158951,0.38840508461,4,"e","029"
"experiment",2,476,-0.135912191632,0.837330701941,3,0.1,3,0,"quadruplet","odd",0.782039880753,1.49220919609,2,"o","029"
"experiment",3,477,0.955171485279,0.835924551422,3,0.1,4,0,"quadruplet","odd",0.893995046616,1.13800096512,8,"o","029"
"experiment",2,478,0.968209402944,-0.778182621134,9,0.1,5,0,"quadruplet","even",1.10210609436,0.510812997818,4,"e","029"
"experiment",2,479,-0.672026522149,0.516217501319,5,0.1,1,0,"quadruplet","even",0.629981994629,1.94128990173,6,"e","029"
"experiment",3,480,0.55144721938,0.941192443733,9,0.1,4,2,"pairs","odd",0.462844133377,0.787213087082,4,"o","029"
"experiment",2,481,-0.112326362028,0.660785688298,9,0.1,3,2,"pairs","even",0.822016000748,1.29372286797,4,"o","029"
"experiment",4,482,-0.515288376566,0.831992226622,9,0.1,6,2,"pairs","odd",1.05402803421,1.92363095284,4,"o","029"
"experiment",2,483,0.392352732295,0.084221079258,9,0.1,5,2,"pairs","even",1.82288599014,0.592206954956,2,"e","029"
"experiment",2,484,-0.498210493902,0.813418058823,9,0.1,2,2,"pairs","odd",0.710739135742,1.32956886292,4,"o","029"
"experiment",2,485,-0.220852142299,0.379378772589,9,0.1,1,2,"pairs","even",0.462070226669,0.410008907318,4,"e","029"
"experiment",2,486,-0.00429327263805,0.200016480602,3,0.1,3,2,"pairs","even",0.670732021332,1.60451412201,4,"e","029"
"experiment",1,487,-0.496933900337,0.844920597117,3,0.1,1,2,"pairs","odd",0.349942922592,0.733577013016,2,"o","029"
"experiment",4,488,0.44239240242,0.651676545513,3,0.1,6,2,"pairs","even",0.934062957764,1.78748893738,4,"e","029"
"experiment",1,489,0.847817182133,0.425737633436,9,0.1,2,2,"pairs","even",3.47085094452,1.43016219139,2,"o","029"
"experiment",2,490,0.906924452241,0.785730180272,3,0.1,5,2,"pairs","odd",4.84597206116,3.1472799778,4,"o","029"
"experiment",2,491,0.0215871133294,0.146874604305,3,0.1,4,2,"pairs","odd",4.03797006607,1.19088697433,4,"o","029"
"experiment",2,492,0.0723658422176,-0.513093816118,9,0.1,1,7,"singles","even",0.590805053711,0.885992050171,4,"e","029"
"experiment",2,493,-0.0539919594663,-0.738014183156,9,0.1,3,7,"singles","even",2.7109181881,0.592397928238,4,"o","029"
"experiment",3,494,0.114803399202,-0.934619515251,9,0.1,5,7,"singles","odd",0.846187114716,0.592334985733,4,"o","029"
"experiment",3,495,0.673813304538,0.560560469666,9,0.1,6,7,"singles","odd",1.52607393265,0.499621152878,4,"o","029"
"experiment",1,496,0.6102476274,0.152712443289,9,0.1,2,7,"singles","even",0.582004070282,1.68410491943,4,"e","029"
"experiment",3,497,-0.137053845608,0.933635003901,9,0.1,4,7,"singles","even",0.541913986206,0.900420188904,4,"e","029"
"experiment",4,498,0.714858802367,0.746640866802,9,0.1,3,7,"singles","odd",0.894901037216,0.730931997299,4,"o","029"
"experiment",2,499,-0.624381250853,-0.475957964058,9,0.1,2,7,"singles","odd",3.52598500252,0.960529088974,4,"e","029"
"experiment",4,500,-0.439685246061,0.497194072677,9,0.1,6,7,"singles","even",0.470113039017,0.527840137482,4,"e","029"
"experiment",4,501,-0.921187690146,-0.489142988901,9,0.1,5,7,"singles","odd",0.293873071671,1.56536889076,4,"o","029"
"experiment",3,502,-0.117207133716,-0.831919900641,9,0.1,4,7,"singles","even",0.278825044632,1.0637819767,4,"e","029"
"experiment",2,503,-0.661252535166,0.339873730367,9,0.1,1,7,"singles","odd",1.71088695526,0.993995904922,4,"o","029"
"experiment",1,504,0.0581765463403,-0.741613886445,3,0.1,1,0,"quadruplet","odd",0.446818113327,2.38832402229,2,"o","029"
"experiment",2,505,-0.854791213334,-0.625635137122,5,0.1,2,0,"quadruplet","odd",0.398058891296,2.37976717949,4,"e","029"
"experiment",2,506,0.369675765526,-0.839949468373,7,0.1,5,0,"quadruplet","even",0.798825979233,1.62419581413,6,"e","029"
"experiment",3,507,0.134739493809,-0.631313898195,3,0.1,6,0,"quadruplet","even",0.758105993271,0.675908088684,4,"e","029"
"experiment",3,508,0.816825015619,0.0953429508102,7,0.1,4,0,"quadruplet","even",0.62206697464,0.77787399292,8,"e","029"
"experiment",2,509,0.998185652658,0.935637912212,5,0.1,3,0,"quadruplet","odd",0.798862218857,1.70679092407,8,"e","029"
"experiment",2,510,0.630620389905,0.0134347552137,5,0.1,2,0,"quadruplet","even",0.598839998245,0.923832893372,4,"o","029"
"experiment",3,511,-0.243075764829,0.16396942082,7,0.1,5,0,"quadruplet","odd",0.55801486969,0.841953039169,6,"o","029"
"experiment",3,512,0.456048861504,0.827084292501,9,0.1,3,0,"quadruplet","even",0.397993087769,0.685159921646,2,"e","029"
"experiment",3,513,0.873689156729,0.909450265085,9,0.1,6,0,"quadruplet","even",0.342097043991,0.622365951538,4,"e","029"
"experiment",1,514,0.759127421806,0.531040121103,7,0.1,1,0,"quadruplet","odd",1.03885507584,0.413223981857,2,"o","029"
"experiment",2,515,0.918503040372,-0.0180896045036,5,0.1,4,0,"quadruplet","odd",0.606770038605,0.745908975601,6,"o","029"
"experiment",2,516,-0.914013408417,-0.477140133253,9,0.1,4,28,"pairs","even",1.3669090271,0.54701089859,8,"e","029"
"experiment",1,517,-0.786307644541,-0.998544346674,9,0.1,1,28,"pairs","even",0.462125062943,0.295315980911,4,"o","029"
"experiment",2,518,-0.111318724308,-0.49945672658,9,0.1,6,28,"pairs","odd",0.805966854095,1.04695510864,4,"o","029"
"experiment",1,519,-0.767002070471,-0.223197910874,5,0.1,3,28,"pairs","odd",0.294802188873,1.18219399452,4,"e","029"
"experiment",3,520,0.992144796616,-0.165275949412,9,0.1,5,28,"pairs","odd",1.10279488564,1.52769899368,8,"o","029"
"experiment",1,521,-0.125262166052,-0.993827171171,9,0.1,2,28,"pairs","even",6.022783041,4.73891687393,4,"o","029"
"experiment",3,522,0.678773544548,-0.897744419926,9,0.1,6,28,"pairs","even",0.47078204155,0.715581893921,4,"e","029"
"experiment",1,523,0.384284439573,0.895596010161,9,0.1,2,28,"pairs","odd",0.366167068481,0.675915956497,4,"o","029"
"experiment",3,524,0.414995211988,-0.616779578648,5,0.1,4,28,"pairs","odd",1.04689598083,1.10868692398,8,"o","029"
"experiment",3,525,0.388191844365,0.432956249249,5,0.1,3,28,"pairs","odd",0.486742973328,1.44243788719,4,"o","029"
"experiment",3,526,0.434189270177,0.230590361873,9,0.1,5,28,"pairs","even",0.590797185898,1.73763418198,8,"e","029"
"experiment",2,527,-0.350399005667,0.43786677822,9,0.1,1,28,"pairs","even",0.518830060959,0.445961952209,4,"o","029"
"experiment",1,528,-0.782381474348,0.53738913916,3,0.1,2,0,"singles","odd",0.318838119507,1.75488400459,2,"o","029"
"experiment",2,529,0.678832269213,0.565094221007,3,0.1,4,0,"singles","odd",1.27021598816,0.675495147705,2,"o","029"
"experiment",2,530,0.8055855449,0.708092649153,3,0.1,5,0,"singles","even",0.269995927811,0.870499134064,2,"e","029"
"experiment",2,531,0.112697757299,0.00126503216679,3,0.1,6,0,"singles","even",0.726133108139,0.508064985275,2,"e","029"
"experiment",2,532,-0.307842970883,0.321330282798,3,0.1,3,0,"singles","even",0.750011920929,2.38828110695,2,"o","029"
"experiment",1,533,0.955013528531,-0.909901049043,3,0.1,1,0,"singles","odd",0.446093082428,0.672054052353,2,"o","029"
"experiment",3,534,-0.182667351886,0.316601085042,3,0.1,6,0,"singles","odd",2.3428800106,4.33076500893,2,"o","029"
"experiment",2,535,0.593215966901,-0.847712692554,3,0.1,4,0,"singles","even",1.10212206841,0.450798988342,2,"e","029"
"experiment",1,536,0.638713695008,0.753087252944,3,0.1,2,0,"singles","even",0.702191114426,1.06618285179,2,"o","029"
"experiment",3,537,0.529420021685,0.545167704439,3,0.1,5,0,"singles","odd",1.25408101082,0.761226892471,2,"o","029"
"experiment",1,538,0.370110159803,0.393245162072,3,0.1,3,0,"singles","even",0.318869113922,0.996137142181,2,"e","029"
"experiment",2,539,0.952028913742,0.478478702391,3,0.1,1,0,"singles","odd",7.09488296509,1.53159117699,2,"o","029"
"experiment",3,540,0.930382745922,-0.312260217238,5,0.1,5,33,"pairs","odd",0.478656053543,0.967340946198,8,"o","029"
"experiment",2,541,-0.787579342659,0.844042946567,5,0.1,1,33,"pairs","even",0.566873073578,0.563315868378,8,"e","029"
"experiment",2,542,0.392717611088,-0.68571695997,5,0.1,4,33,"pairs","odd",1.71083593369,0.955981016159,6,"o","029"
"experiment",2,543,0.350192537857,-0.212755529938,7,0.1,6,33,"pairs","even",0.566025018692,3.00376105309,8,"e","029"
"experiment",2,544,-0.37668180834,0.103906550688,5,0.1,2,33,"pairs","odd",0.462080001831,0.907649040222,8,"o","029"
"experiment",2,545,-0.0379889432492,0.119027861331,5,0.1,3,33,"pairs","odd",0.365918874741,1.34172582626,8,"o","029"
"experiment",3,546,-0.128092259009,0.26937721432,5,0.1,4,33,"pairs","even",1.04693508148,0.729240894318,8,"e","029"
"experiment",3,547,-0.670826283378,0.49412424866,5,0.1,6,33,"pairs","even",0.630083084106,0.828084945679,6,"e","029"
"experiment",1,548,-0.287089594108,0.848534879466,7,0.1,2,33,"pairs","even",0.350850105286,1.17776203156,8,"o","029"
"experiment",1,549,-0.740450096405,-0.16347335016,5,0.1,3,33,"pairs","odd",3.19007492065,1.17674303055,8,"e","029"
"experiment",1,550,0.335668267716,0.394423400708,7,0.1,1,33,"pairs","even",0.862110853195,0.719429016113,6,"o","029"
"experiment",3,551,-0.00536275595281,0.563892486133,5,0.1,5,33,"pairs","odd",3.67808818817,1.16943597794,8,"o","029"
"experiment",1,552,0.40774002454,0.473489014465,3,0.1,1,0,"quadruplet","odd",0.566811084747,0.595860958099,2,"e","029"
"experiment",3,553,0.990050403573,0.481950200814,3,0.1,4,0,"quadruplet","even",0.534847974777,0.650463104248,4,"e","029"
"experiment",3,554,-0.781184761371,-0.610004808004,7,0.1,5,0,"quadruplet","odd",1.3828728199,1.18729400635,4,"o","029"
"experiment",3,555,0.497777433094,-0.273150499154,5,0.1,6,0,"quadruplet","even",0.670011997223,0.522813081741,8,"e","029"
"experiment",1,556,0.031432191827,-0.533044811684,9,0.1,3,0,"quadruplet","odd",0.478026151657,0.424103975296,8,"o","029"
"experiment",1,557,0.421801365025,0.514147835648,3,0.1,2,0,"quadruplet","even",0.390751838684,0.407409906387,2,"e","029"
"experiment",4,558,-0.443601351152,-0.793959810537,5,0.1,5,0,"quadruplet","odd",0.486783027649,1.46319103241,6,"o","029"
"experiment",2,559,-0.0813399200258,-0.978117752966,7,0.1,2,0,"quadruplet","even",0.814873933792,0.971147060394,8,"e","029"
"experiment",3,560,-0.277772480387,0.909854239294,3,0.1,4,0,"quadruplet","odd",1.54191303253,1.73080396652,8,"o","029"
"experiment",1,561,0.947559027417,0.362096431967,7,0.1,3,0,"quadruplet","even",0.621882915497,0.717134952545,8,"o","029"
"experiment",3,562,0.261648462238,0.102062869135,3,0.1,6,0,"quadruplet","even",0.710772037506,2.2449400425,2,"e","029"
"experiment",1,563,0.883507548588,-0.498841583959,3,0.1,1,0,"quadruplet","odd",0.406026124954,0.843411922455,8,"e","029"
"experiment",3,564,-0.830469424548,-0.0419977260522,5,0.1,5,9,"singles","odd",0.454774856567,0.897831916809,6,"o","029"
"experiment",4,565,-0.0239256845497,0.981998569469,5,0.1,6,9,"singles","even",0.46205997467,0.473231077194,6,"e","029"
"experiment",3,566,0.141911257761,0.234865702917,5,0.1,4,9,"singles","even",0.30197095871,1.06215310097,6,"e","029"
"experiment",1,567,0.287198260619,-0.930539371624,5,0.1,1,9,"singles","odd",0.342136144638,0.793263196945,6,"o","029"
"experiment",2,568,-0.473797280678,-0.0879273844508,5,0.1,2,9,"singles","odd",0.398061037064,1.52722883224,6,"o","029"
"experiment",2,569,-0.215337273971,-0.064745556586,5,0.1,3,9,"singles","even",0.814754009247,1.20699596405,6,"o","029"
"experiment",4,570,-0.92354828215,-0.636767547314,5,0.1,6,9,"singles","even",0.854031085968,0.844565153122,6,"e","029"
"experiment",3,571,-0.948699325681,0.810516066475,5,0.1,3,9,"singles","odd",0.422879934311,1.14854288101,6,"o","029"
"experiment",3,572,0.0268322514399,-0.0460071151297,5,0.1,4,9,"singles","even",0.63086104393,0.583271980286,6,"o","029"
"experiment",2,573,-0.0646553701774,-0.953827657477,5,0.1,2,9,"singles","odd",0.262804031372,1.67118287086,6,"o","029"
"experiment",1,574,-0.145106215194,-0.894343396819,5,0.1,1,9,"singles","even",0.165866136551,1.46468806267,6,"e","029"
"experiment",3,575,-0.702454388988,0.679222727024,5,0.1,5,9,"singles","odd",0.502784013748,0.374330043793,6,"o","029"
"experiment",1,576,0.753846001785,-0.708829937157,5,0.1,1,24,"pairs","even",0.390864133835,0.786741018295,4,"o","029"
"experiment",4,577,-0.594980843615,0.893818523024,5,0.1,6,24,"pairs","even",0.822833061218,0.550374031067,8,"e","029"
"experiment",2,578,-0.269232000048,-0.901217102585,3,0.1,2,24,"pairs","odd",0.470169067383,1.08909988403,8,"e","029"
"experiment",3,579,0.00209663519607,0.829473986232,3,0.1,5,24,"pairs","odd",1.17409110069,0.983689069748,4,"o","029"
"experiment",3,580,-0.735627154609,0.945730374604,3,0.1,4,24,"pairs","even",0.254109859467,0.523113965988,8,"e","029"
"experiment",3,581,0.723315850172,0.598930526985,3,0.1,3,24,"pairs","odd",1.11881995201,0.991119146347,8,"o","029"
"experiment",4,582,-0.0261041369224,0.590947726509,3,0.1,4,24,"pairs","even",1.30207395554,0.572824001312,4,"e","029"
"experiment",2,583,0.778487999052,0.42388572565,5,0.1,3,24,"pairs","odd",0.406126022339,0.61282992363,4,"o","029"
"experiment",2,584,0.203464856338,0.155739200608,3,0.1,1,24,"pairs","odd",0.398823976517,0.501016139984,8,"e","029"
"experiment",1,585,0.864109197598,-0.770242048718,3,0.1,2,24,"pairs","even",0.526777029037,0.456163883209,4,"o","029"
"experiment",3,586,-0.774722227584,-0.933139022582,5,0.1,5,24,"pairs","even",0.454828977585,0.487384080887,8,"e","029"
"experiment",2,587,-0.0332518503953,-0.647016849093,5,0.1,6,24,"pairs","odd",0.462100982666,0.677130937576,8,"o","029"
"experiment",2,588,-0.168364644538,-0.758613574807,7,0.1,3,14,"singles","odd",1.59879302979,1.03637099266,8,"o","029"
"experiment",3,589,0.0429938865336,0.649442162616,7,0.1,4,14,"singles","even",0.974780797958,0.466675043106,8,"e","029"
"experiment",3,590,0.293419054177,-0.733678267141,7,0.1,6,14,"singles","even",0.382839918137,0.337775945663,8,"e","029"
"experiment",1,591,-0.585082354179,0.637890670735,7,0.1,1,14,"singles","odd",0.614824056625,0.462175130844,8,"o","029"
"experiment",3,592,0.425242852857,0.195667866516,7,0.1,5,14,"singles","odd",0.398817062378,0.596343040466,8,"o","029"
"experiment",2,593,-0.986403471275,-0.594929715338,7,0.1,2,14,"singles","even",0.582811832428,0.439442873001,8,"e","029"
"experiment",2,594,0.119511959028,-0.0693367555852,7,0.1,5,14,"singles","odd",0.886986017227,1.05669689178,8,"o","029"
"experiment",3,595,0.374658402953,-0.00299973009477,7,0.1,6,14,"singles","even",0.550096035004,0.491620063782,8,"e","029"
"experiment",2,596,0.243787166635,-0.300761410638,7,0.1,2,14,"singles","odd",1.13411188126,0.386513948441,8,"o","029"
"experiment",2,597,-0.217243433839,0.967002536829,7,0.1,1,14,"singles","even",0.8228328228,0.365767002106,8,"e","029"
"experiment",2,598,-0.0963348125918,-0.384355369745,7,0.1,4,14,"singles","even",0.710875034332,0.433429956436,8,"e","029"
"experiment",2,599,-0.499851797249,0.388843930846,7,0.1,3,14,"singles","odd",1.00685405731,0.359169006348,8,"o","029"
"experiment",2,600,-0.102217794715,-0.631006154776,7,0.1,4,0,"quadruplet","odd",0.422860145569,0.696086883545,6,"o","029"
"experiment",2,601,0.449967079054,-0.127126082243,9,0.1,2,0,"quadruplet","odd",0.51073884964,0.515277147293,4,"e","029"
"experiment",1,602,0.876991482395,-0.608029066716,5,0.1,3,0,"quadruplet","even",0.862105131149,0.535669088364,2,"o","029"
"experiment",1,603,0.149307253181,-0.762755657595,7,0.1,1,0,"quadruplet","even",0.382193803787,0.876290082932,8,"e","029"
"experiment",3,604,-0.971944125694,0.0349891112893,3,0.1,6,0,"quadruplet","odd",0.726086854935,0.669688940048,4,"o","029"
"experiment",2,605,0.973951512056,0.133155469552,3,0.1,5,0,"quadruplet","odd",0.334001064301,0.71292090416,6,"o","029"
"experiment",2,606,0.238879710498,0.765025736224,5,0.1,2,0,"quadruplet","even",0.790108919144,1.9936299324,4,"e","029"
"experiment",2,607,-0.654520109082,0.424652421681,5,0.1,1,0,"quadruplet","even",0.646890163422,0.928071022034,4,"o","029"
"experiment",3,608,0.922161973945,0.273201359792,3,0.1,4,0,"quadruplet","even",1.57418084145,0.579818964005,2,"e","029"
"experiment",2,609,-0.741764218447,-0.413088028569,3,0.1,3,0,"quadruplet","odd",0.35807299614,2.66591596603,8,"o","029"
"experiment",3,610,-0.953629775178,-0.38064802684,7,0.1,6,0,"quadruplet","odd",0.446841955185,0.594846010208,2,"o","029"
"experiment",3,611,0.858090832501,0.724699697564,5,0.1,5,0,"quadruplet","even",0.286113977432,1.26802301407,8,"e","029"
"experiment",2,612,-0.617771589413,-0.0341486527376,3,0.1,1,12,"singles","odd",0.878760099411,3.53139805794,8,"o","029"
"experiment",3,613,-0.595328457136,0.430612781075,3,0.1,4,12,"singles","even",0.454110145569,1.01161909103,8,"e","029"
"experiment",1,614,0.237279657295,-0.513442747948,3,0.1,2,12,"singles","odd",0.446105003357,0.5065741539,8,"o","029"
"experiment",2,615,0.801122469149,-0.500016991703,3,0.1,3,12,"singles","even",1.07873678207,0.711976051331,8,"e","029"
"experiment",2,616,0.559590531341,-0.77770355247,3,0.1,5,12,"singles","even",0.630093097687,0.879132986069,8,"e","029"
"experiment",2,617,-0.261341562969,-0.480711532072,3,0.1,6,12,"singles","odd",1.69409418106,0.768945932388,8,"o","029"
"experiment",3,618,0.467351753006,0.654378487826,3,0.1,3,12,"singles","even",0.422842979431,0.938105821609,8,"e","029"
"experiment",2,619,-0.0764069367325,-0.13870080154,3,0.1,1,12,"singles","odd",0.974804878235,1.18830800056,8,"o","029"
"experiment",2,620,0.889309100645,-0.763966183965,3,0.1,2,12,"singles","odd",0.902791976929,2.69854187965,8,"o","029"
"experiment",3,621,-0.415353148101,0.404007495855,3,0.1,5,12,"singles","even",1.03024792671,4.12973690033,8,"e","029"
"experiment",2,622,0.804103921601,-0.375442996856,3,0.1,4,12,"singles","odd",0.318776130676,1.87321400642,8,"o","029"
"experiment",2,623,-0.725224138053,-0.216877057074,3,0.1,6,12,"singles","even",43.0229799747,0.649853944778,8,"e","029"
"experiment",3,624,0.134556708474,0.320233611705,5,0.1,5,21,"pairs","even",0.886902093887,1.76362895966,6,"e","029"
"experiment",1,625,-0.60668330169,0.513300604849,7,0.1,1,21,"pairs","even",0.462176799774,1.03824591637,6,"o","029"
"experiment",2,626,0.405143402369,0.928171936707,5,0.1,3,21,"pairs","odd",0.662006139755,0.352040052414,4,"o","029"
"experiment",3,627,-0.716849506711,-0.529874634647,7,0.1,6,21,"pairs","odd",0.846127033234,1.29021883011,4,"o","029"
"experiment",2,628,-0.292884290802,0.70786798858,5,0.1,2,21,"pairs","even",0.662075042725,0.65078496933,6,"e","029"
"experiment",2,629,0.336440754888,0.22702129777,5,0.1,4,21,"pairs","even",1.66200900078,0.791388988495,4,"o","029"
"experiment",2,630,-0.936598343468,0.837494562564,7,0.1,2,21,"pairs","odd",0.902058124542,0.747474908829,4,"e","029"
"experiment",3,631,-0.475752101043,-0.261529862888,7,0.1,4,21,"pairs","odd",0.54200387001,2.49038100243,4,"o","029"
"experiment",2,632,-0.521433113517,-0.813214251194,5,0.1,5,21,"pairs","odd",0.917997121811,4.8870511055,6,"o","029"
"experiment",3,633,0.213232078528,0.560239418574,7,0.1,3,21,"pairs","odd",0.366098165512,0.90899515152,4,"o","029"
"experiment",2,634,-0.199118382081,-0.342336621717,5,0.1,1,21,"pairs","even",0.670005083084,2.64514088631,4,"o","029"
"experiment",4,635,0.219000896157,-0.56171456862,5,0.1,6,21,"pairs","even",0.574836969376,0.556762933731,6,"e","029"
"experiment",1,636,-0.661300704094,-0.450699942,9,0.1,3,0,"quadruplet","odd",2.04683113098,1.15078496933,4,"o","029"
"experiment",2,637,-0.702372816321,0.692042427511,3,0.1,2,0,"quadruplet","odd",0.270896196365,0.96672296524,6,"e","029"
"experiment",3,638,0.465173893728,-0.486841294452,7,0.1,6,0,"quadruplet","even",0.222126960754,0.748760938644,8,"e","029"
"experiment",2,639,0.242937147174,0.811122274601,9,0.1,1,0,"quadruplet","even",0.302826881409,1.83833193779,4,"e","029"
"experiment",3,640,-0.987621476608,-0.420677006088,3,0.1,4,0,"quadruplet","odd",0.573976993561,2.13830900192,6,"o","029"
"experiment",2,641,0.799247177563,-0.0950096414425,3,0.1,5,0,"quadruplet","odd",0.358783960342,0.663733005524,8,"o","029"
"experiment",3,642,0.711067701755,-0.215969401697,7,0.1,5,0,"quadruplet","even",2.69480586052,0.917572975159,2,"e","029"
"experiment",2,643,0.97998893707,0.471312851224,7,0.1,3,0,"quadruplet","even",1.09407496452,0.678618907928,8,"e","029"
"experiment",2,644,0.333430923542,-0.659465164785,9,0.1,2,0,"quadruplet","odd",0.838802099228,0.659409999847,2,"o","029"
"experiment",3,645,-0.972241030474,0.725280134999,7,0.1,6,0,"quadruplet","even",0.750871896744,0.572792053223,8,"e","029"
"experiment",2,646,0.478072314049,-0.739973235649,5,0.1,1,0,"quadruplet","even",1.31005501747,0.546773910522,2,"o","029"
"experiment",2,647,-0.789125544055,-0.325356708133,5,0.1,4,0,"quadruplet","odd",0.470885038376,0.953491210938,8,"o","029"
"experiment",2,648,-0.175646338959,-0.967571002414,9,0.1,3,15,"singles","odd",1.11884307861,1.1023619175,8,"o","029"
"experiment",3,649,-0.0307207597744,-0.964824092023,9,0.1,5,15,"singles","even",1.70301795006,0.576400995255,8,"e","029"
"experiment",2,650,0.912393625247,-0.927656885726,9,0.1,1,15,"singles","even",0.310075044632,0.709172010422,8,"e","029"
"experiment",2,651,-0.0249264773205,0.530466753855,9,0.1,2,15,"singles","odd",0.837965965271,1.65859699249,8,"o","029"
"experiment",3,652,0.0490437909271,0.510604303293,9,0.1,6,15,"singles","even",0.934870004654,0.600534200668,8,"e","029"
"experiment",3,653,0.865883627453,-0.0939695617063,9,0.1,4,15,"singles","odd",0.790816783905,0.735136032104,8,"o","029"
"experiment",2,654,0.154759048291,-0.41694319865,9,0.1,3,15,"singles","odd",0.542088985443,0.408679008484,8,"e","029"
"experiment",2,655,-0.669127497641,0.241607529351,9,0.1,4,15,"singles","even",0.534795045853,0.574507951736,8,"e","029"
"experiment",2,656,-0.728222044916,-0.202096855939,9,0.1,1,15,"singles","odd",4.35897707939,0.439517974854,8,"o","029"
"experiment",2,657,0.669749331127,-0.709845439689,9,0.1,2,15,"singles","odd",0.798002004623,0.544536113739,8,"e","029"
"experiment",4,658,0.457389605595,0.302273356527,9,0.1,5,15,"singles","even",0.485850095749,0.42068696022,8,"e","029"
"experiment",4,659,0.463920426612,0.349193124953,9,0.1,6,15,"singles","even",0.766093969345,0.739045858383,8,"e","029"
"experiment",4,660,-0.183107628705,-0.845554405675,3,0.1,4,7,"pairs","even",0.654911994934,0.489671945572,6,"e","029"
"experiment",4,661,-0.213428954718,0.557608115664,7,0.1,6,7,"pairs","even",0.934056997299,0.4099650383,6,"e","029"
"experiment",2,662,0.382247757113,0.914935922473,3,0.1,1,7,"pairs","odd",0.41406416893,0.716081857681,6,"o","029"
"experiment",3,663,0.186962270522,-0.634827423003,7,0.1,5,7,"pairs","odd",0.60594701767,0.952866077423,6,"o","029"
"experiment",2,664,-0.436836671912,-0.533306643088,3,0.1,2,7,"pairs","even",0.590886116028,1.72409796715,6,"e","029"
"experiment",1,665,-0.965567232108,-0.408056048207,7,0.1,3,7,"pairs","odd",0.278880834579,1.80716300011,2,"e","029"
"experiment",2,666,-0.034373985702,0.703120435222,7,0.1,3,7,"pairs","even",0.902863025665,1.1534910202,2,"e","029"
"experiment",1,667,-0.398159258558,0.601034453874,7,0.1,2,7,"pairs","odd",0.366805791855,0.651060819626,6,"e","029"
"experiment",3,668,0.0708739988391,0.49483216129,3,0.1,5,7,"pairs","even",0.49476480484,2.10133385658,6,"e","029"
"experiment",2,669,-0.0456640252029,-0.0557420947952,3,0.1,4,7,"pairs","odd",0.525988101959,1.30964016914,6,"o","029"
"experiment",1,670,0.732593975193,-0.381413509579,7,0.1,1,7,"pairs","even",2.10288906097,0.534528970718,6,"e","029"
"experiment",1,671,-0.59523640934,-0.346565612183,7,0.1,6,7,"pairs","odd",5.78206300735,0.613884925842,2,"o","029"
"experiment",1,672,-0.661485401806,0.0204519562312,3,0.1,1,0,"quadruplet","even",0.462907075882,1.08621191978,2,"o","029"
"experiment",3,673,0.78511291709,0.292754034203,9,0.1,6,0,"quadruplet","even",0.46280503273,0.659002065659,2,"e","029"
"experiment",3,674,0.515698591871,-0.208710544792,5,0.1,5,0,"quadruplet","odd",0.542088031769,0.543951034546,2,"o","029"
"experiment",2,675,-0.243570121642,0.833376615388,9,0.1,2,0,"quadruplet","odd",0.365821123123,1.05055904388,4,"o","029"
"experiment",3,676,0.0955663107485,-0.377559533909,3,0.1,3,0,"quadruplet","even",0.277997970581,0.741352081299,6,"e","029"
"experiment",4,677,0.340122114474,-0.688987593926,5,0.1,4,0,"quadruplet","odd",0.63883805275,0.640719890594,8,"o","029"
"experiment",3,678,-0.0468037088255,-0.694862990261,9,0.1,5,0,"quadruplet","odd",0.462944984436,0.591805934906,8,"o","029"
"experiment",2,679,-0.697418085682,-0.370646383418,3,0.1,1,0,"quadruplet","even",0.470852851868,0.540302038193,4,"o","029"
"experiment",2,680,0.906441137796,0.142614798952,5,0.1,4,0,"quadruplet","odd",0.414752006531,0.442762136459,4,"o","029"
"experiment",3,681,-0.702215503684,-0.551242857427,7,0.1,6,0,"quadruplet","even",0.494177818298,0.395869970322,6,"e","029"
"experiment",3,682,-0.115083399044,-0.392276753522,5,0.1,3,0,"quadruplet","even",1.15074110031,0.37778878212,2,"e","029"
"experiment",1,683,-0.395524587051,0.631348389473,9,0.1,2,0,"quadruplet","odd",0.350765943527,0.296901941299,2,"o","029"
"experiment",3,684,-0.437472614885,-0.759280630031,7,0.1,3,6,"singles","even",0.646862030029,0.679015159607,4,"e","029"
"experiment",2,685,-0.377598851893,0.547516068479,7,0.1,2,6,"singles","odd",3.51002001762,1.3004899025,4,"o","029"
"experiment",4,686,-0.492443059468,-0.226221143022,7,0.1,6,6,"singles","odd",0.54195189476,0.596514940262,4,"o","029"
"experiment",3,687,0.756792603349,-0.297047560685,7,0.1,5,6,"singles","even",0.358026981354,0.542110919952,4,"e","029"
"experiment",4,688,-0.0154686072293,0.603312185319,7,0.1,4,6,"singles","even",0.318857908249,0.364658117294,4,"e","029"
"experiment",1,689,0.485312467095,0.400669088122,7,0.1,1,6,"singles","odd",1.08685398102,0.421890974045,4,"o","029"
"experiment",3,690,0.150070665312,0.825288533271,7,0.1,4,6,"singles","odd",0.614062070847,0.338194131851,4,"o","029"
"experiment",3,691,-0.867192365086,0.907391978721,7,0.1,5,6,"singles","even",0.470879077911,0.48660492897,4,"e","029"
"experiment",1,692,0.175623893932,0.446708431228,7,0.1,2,6,"singles","even",0.142081975937,1.39997315407,4,"e","029"
"experiment",1,693,0.381021481086,-0.188918717923,7,0.1,3,6,"singles","odd",0.686815977097,2.86377906799,4,"e","029"
"experiment",3,694,0.650141058628,-0.0191777011503,7,0.1,6,6,"singles","even",0.382860898972,0.669067144394,4,"e","029"
"experiment",1,695,0.688312600139,0.927443006996,7,0.1,1,6,"singles","odd",0.246055841446,0.430272817612,4,"e","029"
"experiment",1,696,0.384099546432,-0.158007017169,3,0.1,2,1,"pairs","odd",0.406942129135,0.856933116913,4,"o","029"
"experiment",1,697,0.801205739108,0.744753935957,3,0.1,3,1,"pairs","even",0.925984859467,0.901319980621,4,"o","029"
"experiment",2,698,0.836485100507,-0.368786020774,3,0.1,5,1,"pairs","odd",0.44683599472,0.679575920105,2,"o","029"
"experiment",1,699,-0.730178601375,-0.980294825797,3,0.1,1,1,"pairs","even",0.390902996063,0.536963939667,2,"o","029"
"experiment",2,700,-0.449951011631,-0.931010310145,3,0.1,4,1,"pairs","odd",0.406163930893,1.25234794617,2,"o","029"
"experiment",3,701,0.754610660264,0.1342075388,3,0.1,6,1,"pairs","even",1.49490594864,0.620397090912,2,"e","029"
"experiment",2,702,0.861432059336,0.486803052314,3,0.1,2,1,"pairs","odd",0.886096000671,1.62626385689,4,"e","029"
"experiment",2,703,-0.684033088497,-0.673047839851,7,0.1,1,1,"pairs","even",0.678125143051,1.73320508003,2,"e","029"
"experiment",3,704,-0.657842801982,0.175369450165,7,0.1,4,1,"pairs","odd",0.550071001053,1.75472187996,2,"o","029"
"experiment",3,705,0.669807904946,-0.464847521513,3,0.1,5,1,"pairs","odd",0.549917936325,0.737411975861,4,"o","029"
"experiment",3,706,-0.0759571810798,-0.198386510624,3,0.1,3,1,"pairs","even",1.15015101433,0.391268968582,2,"e","029"
"experiment",3,707,0.806123461313,0.238417083874,7,0.1,6,1,"pairs","even",1.16581106186,0.562658071518,2,"e","029"
"experiment",3,708,-0.0958133283015,0.882589391836,9,0.1,2,0,"quadruplet","odd",1.49485206604,2.07704305649,6,"o","029"
"experiment",3,709,-0.115850423646,0.56473398145,7,0.1,6,0,"quadruplet","even",0.494719028473,4.43432021141,6,"e","029"
"experiment",1,710,0.177078200881,0.940348206094,3,0.1,1,0,"quadruplet","even",0.310832023621,0.871886014938,8,"o","029"
"experiment",4,711,0.0983811206186,0.33612403886,7,0.1,3,0,"quadruplet","odd",0.582819223404,0.60955786705,8,"o","029"
"experiment",3,712,0.217375900585,0.400384244609,7,0.1,4,0,"quadruplet","even",0.334882974625,0.666346073151,6,"e","029"
"experiment",4,713,0.683006306639,0.976109846678,7,0.1,5,0,"quadruplet","odd",0.43011713028,1.49261403084,2,"o","029"
"experiment",1,714,0.413550689975,0.421799957227,7,0.1,2,0,"quadruplet","even",0.982891082764,0.388616085052,6,"e","029"
"experiment",2,715,-0.12314027127,-0.11715058937,9,0.1,1,0,"quadruplet","odd",0.294812917709,0.430102109909,4,"o","029"
"experiment",3,716,0.298527714023,-0.148426532488,9,0.1,4,0,"quadruplet","odd",0.542062997818,0.688510894775,4,"o","029"
"experiment",3,717,-0.403526684384,0.864949957368,9,0.1,5,0,"quadruplet","even",0.66212105751,0.453508853912,8,"e","029"
"experiment",1,718,0.547710769929,0.00238213343844,3,0.1,3,0,"quadruplet","odd",0.325977087021,0.455198049545,2,"o","029"
"experiment",3,719,0.624396946583,-0.718599595141,3,0.1,6,0,"quadruplet","even",0.398916006088,0.4987449646,8,"e","029"
"experiment",4,720,0.777251616389,0.349988550552,9,0.1,6,3,"singles","odd",0.686762809753,1.22442293167,2,"o","029"
"experiment",2,721,-0.611105345806,-0.409901474295,9,0.1,2,3,"singles","even",0.558098077774,0.733572006226,2,"e","029"
"experiment",3,722,0.405784498722,-0.0360118783592,9,0.1,5,3,"singles","even",0.862070083618,1.55190014839,2,"e","029"
"experiment",1,723,-0.376388480765,-0.747504208347,9,0.1,1,3,"singles","odd",0.397969007492,0.974666118622,2,"o","029"
"experiment",2,724,-0.646037796021,-0.555504552601,9,0.1,4,3,"singles","even",0.542107820511,0.701614141464,2,"e","029"
"experiment",3,725,-0.198864448914,0.450918258203,9,0.1,3,3,"singles","even",0.622127056122,0.413502931595,2,"e","029"
"experiment",4,726,-0.539488301764,-0.256432664097,9,0.1,6,3,"singles","odd",1.42212510109,0.490015983582,2,"o","029"
"experiment",2,727,-0.740603023971,-0.536526035138,9,0.1,3,3,"singles","odd",0.502866983414,0.421935796738,2,"o","029"
"experiment",2,728,-0.184995167181,-0.427665133642,9,0.1,2,3,"singles","odd",0.350909948349,0.960998058319,2,"e","029"
"experiment",1,729,0.257500899401,-0.776737006325,9,0.1,1,3,"singles","even",0.390872001648,0.446960926056,2,"o","029"
"experiment",2,730,0.254637242597,0.730306408607,9,0.1,5,3,"singles","even",0.445991039276,0.892870187759,2,"e","029"
"experiment",2,731,0.875901766161,0.33498516337,9,0.1,4,3,"singles","odd",1.3828599453,0.793590068817,2,"o","029"
"experiment",2,732,0.570232841027,-0.909847171146,7,0.1,4,35,"pairs","odd",2.87877392769,1.36642384529,6,"o","029"
"experiment",1,733,-0.247432915852,-0.360879675866,9,0.1,1,35,"pairs","even",0.614093065262,0.883192062378,6,"o","029"
"experiment",2,734,0.696300455675,-0.383057401995,9,0.1,3,35,"pairs","even",0.350215911865,0.798965930939,8,"e","029"
"experiment",3,735,0.326305912914,0.774415292051,9,0.1,5,35,"pairs","odd",0.902168035507,0.463641166687,8,"o","029"
"experiment",4,736,-0.100744731817,-0.463535088315,9,0.1,6,35,"pairs","even",0.366189002991,0.617027044296,8,"e","029"
"experiment",2,737,0.547491896269,-0.561825885352,9,0.1,2,35,"pairs","even",0.341992855072,1.81626415253,8,"o","029"
"experiment",1,738,0.097015264854,0.0470921537132,7,0.1,1,35,"pairs","odd",0.5747859478,0.993358850479,6,"o","029"
"experiment",1,739,-0.780112835729,-0.894760159979,7,0.1,3,35,"pairs","odd",0.238039970398,1.32263493538,8,"e","029"
"experiment",3,740,-0.794523962436,-0.984057267351,7,0.1,5,35,"pairs","even",0.334202051163,0.509883880615,8,"e","029"
"experiment",4,741,0.0547443649471,-0.412858173582,7,0.1,6,35,"pairs","even",0.374811172485,0.494276046753,6,"e","029"
"experiment",2,742,0.0568945724392,0.581971858952,9,0.1,2,35,"pairs","odd",0.438134908676,0.543272018433,8,"o","029"
"experiment",3,743,-0.183046363052,-0.507388727942,9,0.1,4,35,"pairs","odd",0.278126955032,1.98636293411,6,"o","029"
"experiment",1,744,0.477249848857,0.630966009842,5,0.1,2,0,"quadruplet","odd",0.534780979156,0.457723855972,8,"e","029"
"experiment",3,745,-0.655210220864,-0.060939882234,7,0.1,6,0,"quadruplet","odd",0.31819486618,0.578658819199,8,"o","029"
"experiment",3,746,-0.220048278911,0.105911885405,9,0.1,4,0,"quadruplet","even",0.294737100601,0.296919822693,2,"e","029"
"experiment",1,747,-0.759676632566,0.495223927354,3,0.1,3,0,"quadruplet","even",0.262759923935,0.253749132156,2,"o","029"
"experiment",2,748,-0.177504678011,-0.389987127022,5,0.1,5,0,"quadruplet","even",0.350161790848,1.0816590786,6,"o","029"
"experiment",1,749,0.390285796538,-0.197029387727,7,0.1,1,0,"quadruplet","odd",0.374862909317,0.205683946609,4,"o","029"
"experiment",2,750,0.224685323671,-0.684962596931,7,0.1,6,0,"quadruplet","odd",4.75814700127,1.91746306419,4,"o","029"
"experiment",3,751,-0.347479690745,0.782338942266,3,0.1,5,0,"quadruplet","even",0.350902795792,0.541337013245,4,"e","029"
"experiment",1,752,-0.621132433141,0.641376766808,9,0.1,3,0,"quadruplet","even",0.358814001083,0.485291957855,8,"o","029"
"experiment",1,753,0.541013919285,-0.600215824743,3,0.1,1,0,"quadruplet","odd",0.342679023743,4.90484309196,2,"e","029"
"experiment",3,754,0.952008560782,0.96855633971,3,0.1,2,0,"quadruplet","even",0.294788837433,0.737388134003,8,"e","029"
"experiment",2,755,0.342047977199,0.343986161258,9,0.1,4,0,"quadruplet","odd",0.31093287468,0.633089065552,2,"o","029"
"experiment",2,756,-0.988346371365,0.706833399229,5,0.1,6,5,"singles","odd",1.0868639946,2.24613308907,4,"o","029"
"experiment",1,757,0.423611779502,0.668562540786,5,0.1,2,5,"singles","odd",0.221971988678,1.64097309113,4,"o","029"
"experiment",2,758,0.441050263153,0.205425472654,5,0.1,3,5,"singles","even",0.950805902481,0.959503173828,4,"o","029"
"experiment",1,759,-0.540590377703,-0.140181082262,5,0.1,4,5,"singles","even",0.374861001968,0.334685087204,4,"o","029"
"experiment",1,760,0.293429731644,0.238100945129,5,0.1,1,5,"singles","even",0.214035987854,0.86699795723,4,"e","029"
"experiment",3,761,-0.106562486396,0.848337962809,5,0.1,5,5,"singles","odd",0.606054067612,0.724646091461,4,"o","029"
"experiment",1,762,0.74597743851,-0.69334687429,5,0.1,3,5,"singles","odd",0.230769872665,0.35941195488,4,"o","029"
"experiment",1,763,-0.471505217286,0.0955511421141,5,0.1,4,5,"singles","even",0.262084007263,0.530872821808,4,"o","029"
"experiment",4,764,-0.121790444017,0.764256567518,5,0.1,6,5,"singles","odd",0.550859928131,0.762203216553,4,"o","029"
"experiment",4,765,0.349918352448,0.0825230467081,5,0.1,2,5,"singles","odd",0.4708340168,0.554925918579,4,"o","029"
"experiment",1,766,0.403739485899,0.555620140697,5,0.1,1,5,"singles","even",0.470705032349,0.538166999817,4,"o","029"
"experiment",3,767,-0.912049389325,-0.183242258105,5,0.1,5,5,"singles","even",1.52598404884,0.656821966171,4,"e","029"
"experiment",3,768,-0.593512962297,0.615322903323,9,0.1,6,5,"pairs","odd",0.310945987701,0.920886993408,4,"o","029"
"experiment",2,769,0.365167337906,0.790958517837,7,0.1,4,5,"pairs","even",0.334876060486,0.413230895996,2,"e","029"
"experiment",1,770,0.545595720374,0.036426308353,9,0.1,2,5,"pairs","odd",0.365915060043,1.66208600998,2,"e","029"
"experiment",1,771,-0.590329839637,0.714064719267,9,0.1,3,5,"pairs","even",0.301933050156,0.709286928177,4,"o","029"
"experiment",3,772,0.487715500933,-0.580313413041,9,0.1,5,5,"pairs","even",0.558907032013,0.699697971344,2,"e","029"
"experiment",1,773,0.693803262762,0.068527846235,9,0.1,1,5,"pairs","even",1.22293496132,0.389315843582,2,"e","029"
"experiment",2,774,-0.146584527239,0.636413172697,9,0.1,3,5,"pairs","odd",0.229954957962,1.26846814156,4,"e","029"
"experiment",3,775,-0.595080800654,0.178878151985,9,0.1,4,5,"pairs","odd",0.342002868652,0.628408193588,2,"o","029"
"experiment",2,776,0.446020316875,-0.0226926919978,9,0.1,2,5,"pairs","even",0.350900888443,0.299289941788,4,"o","029"
"experiment",2,777,0.722586177254,0.960549881579,7,0.1,6,5,"pairs","odd",0.493967056274,1.64228415489,4,"o","029"
"experiment",1,778,0.693728420938,0.586638910679,9,0.1,5,5,"pairs","even",0.622988939285,0.214329004288,4,"o","029"
"experiment",1,779,0.69829777846,-0.376342656544,9,0.1,1,5,"pairs","odd",0.430871009827,0.276734113693,4,"o","029"
"experiment",3,780,0.0726329075328,-0.198702722556,9,0.1,5,0,"quadruplet","odd",0.838776826859,0.703028917313,2,"o","029"
"experiment",1,781,0.261799377842,0.460885546739,3,0.1,1,0,"quadruplet","odd",0.638999938965,0.165183067322,6,"o","029"
"experiment",3,782,0.285066259848,0.204095477615,3,0.1,3,0,"quadruplet","even",0.374046087265,0.652518987656,2,"e","029"
"experiment",3,783,-0.227789882455,0.936703829933,3,0.1,4,0,"quadruplet","even",0.630934000015,0.377942085266,8,"e","029"
"experiment",3,784,0.804395361219,0.455051372599,5,0.1,6,0,"quadruplet","even",3.6709458828,0.258098125458,2,"e","029"
"experiment",1,785,-0.0540107682571,-0.138167709303,9,0.1,2,0,"quadruplet","even",0.582152843475,0.317622900009,4,"o","029"
"experiment",3,786,-0.981232004335,-0.628088752741,9,0.1,3,0,"quadruplet","odd",0.910943984985,0.208256959915,4,"e","029"
"experiment",3,787,0.81986488338,-0.749097755702,9,0.1,4,0,"quadruplet","odd",0.942117929459,0.437330961227,6,"o","029"
"experiment",1,788,0.388128753703,0.468378469541,9,0.1,2,0,"quadruplet","odd",0.389935016632,1.02038502693,6,"o","029"
"experiment",4,789,-0.944211151544,-0.816261158187,9,0.1,5,0,"quadruplet","odd",0.261954069138,0.581201076508,4,"o","029"
"experiment",1,790,-0.516400216036,0.345136652107,3,0.1,1,0,"quadruplet","even",0.269927024841,0.868392944336,8,"o","029"
"experiment",3,791,-0.515271276097,-0.954891272292,3,0.1,6,0,"quadruplet","even",0.261929988861,0.46731710434,6,"e","029"
"experiment",4,792,0.54068780059,0.875567521796,7,0.1,6,23,"pairs","even",0.390888929367,0.783471107483,4,"e","029"
"experiment",3,793,-0.662020383347,-0.017580059058,9,0.1,4,23,"pairs","odd",1.34215903282,0.610045909882,4,"o","029"
"experiment",3,794,0.399255950478,-0.803549628734,9,0.1,5,23,"pairs","odd",0.646149873734,0.644951105118,6,"o","029"
"experiment",1,795,0.968591537437,-0.511856509285,7,0.1,1,23,"pairs","even",0.310077905655,1.31244897842,6,"e","029"
"experiment",3,796,-0.639689244552,0.829459650212,9,0.1,3,23,"pairs","odd",0.254078149796,0.53929400444,6,"o","029"
"experiment",1,797,0.270836938586,-0.987984601295,7,0.1,2,23,"pairs","odd",0.33487200737,0.516907930374,4,"e","029"
"experiment",3,798,-0.0384197015881,0.358465025229,9,0.1,1,23,"pairs","even",0.638111114502,0.319425106049,6,"o","029"
"experiment",3,799,0.424763420621,-0.0645892709153,9,0.1,3,23,"pairs","even",0.366664886475,0.494293928146,6,"e","029"
"experiment",4,800,-0.36556077945,-0.597257110826,7,0.1,5,23,"pairs","odd",0.806128978729,0.919035196304,4,"o","029"
"experiment",2,801,-0.950165249756,-0.751668471738,9,0.1,4,23,"pairs","even",0.334102153778,0.851201057434,4,"e","029"
"experiment",3,802,0.422144529462,-0.0906038940571,9,0.1,6,23,"pairs","even",0.846869945526,0.622819900513,4,"e","029"
"experiment",3,803,-0.251116246082,0.851046311968,7,0.1,2,23,"pairs","odd",2.37486791611,0.529548883438,4,"o","029"
"experiment",1,804,-0.912010732283,0.114693445378,7,0.1,1,2,"singles","even",1.07076096535,0.436507940292,2,"e","029"
"experiment",2,805,-0.989954389342,0.921196087791,7,0.1,6,2,"singles","odd",0.68681883812,0.938676834106,2,"o","029"
"experiment",2,806,0.314103832745,0.983696508449,7,0.1,2,2,"singles","odd",0.438039064407,4.02809882164,2,"o","029"
"experiment",1,807,-0.168871102132,-0.939332244794,7,0.1,3,2,"singles","even",0.205825090408,1.02041292191,2,"e","029"
"experiment",2,808,0.745882435979,0.726620580968,7,0.1,5,2,"singles","even",0.4299929142,1.92945408821,2,"e","029"
"experiment",2,809,0.214652312987,-0.477938204365,7,0.1,4,2,"singles","odd",0.438782930374,2.93761706352,2,"o","029"
"experiment",1,810,-0.412677412236,0.15628941519,7,0.1,1,2,"singles","even",2.99065709114,2.17516088486,2,"o","029"
"experiment",2,811,0.447839452252,0.227408823549,7,0.1,4,2,"singles","odd",0.926890850067,3.26024007797,2,"o","029"
"experiment",1,812,-0.243287324435,0.883543582592,7,0.1,2,2,"singles","even",0.150970935822,1.02285695076,2,"e","029"
"experiment",3,813,0.102105459154,-0.390695747563,7,0.1,6,2,"singles","odd",0.566926002502,1.231995821,2,"o","029"
"experiment",3,814,0.895626408606,-0.93424231346,7,0.1,5,2,"singles","odd",0.262109994888,0.584501028061,2,"o","029"
"experiment",3,815,0.302752646771,0.838463839462,7,0.1,3,2,"singles","even",0.422819137573,0.547967910767,2,"e","029"
"experiment",2,816,-0.791787129364,0.399094485354,5,0.1,4,0,"quadruplet","even",0.286779165268,0.585833072662,2,"e","029"
"experiment",2,817,0.629852078518,-0.760557024017,3,0.1,1,0,"quadruplet","odd",0.462135076523,0.874449014664,4,"e","029"
"experiment",2,818,0.283143177216,-0.369446216001,3,0.1,2,0,"quadruplet","even",0.510892152786,0.349743127823,2,"o","029"
"experiment",2,819,0.870289967653,-0.553088435843,7,0.1,3,0,"quadruplet","odd",1.09421110153,0.343349933624,8,"e","029"
"experiment",3,820,0.640494123712,0.0522664410037,5,0.1,6,0,"quadruplet","odd",0.606785058975,1.16925907135,6,"o","029"
"experiment",3,821,-0.48755944024,-0.0716820325808,5,0.1,5,0,"quadruplet","even",0.245801925659,0.418805837631,6,"e","029"
"experiment",1,822,-0.353157468581,0.557228440287,7,0.1,2,0,"quadruplet","even",0.934719800949,0.45663189888,4,"o","029"
"experiment",2,823,-0.0289791031418,-0.100299919109,7,0.1,3,0,"quadruplet","odd",1.07868504524,0.949438095093,4,"e","029"
"experiment",3,824,-0.844927168962,-0.54679755178,5,0.1,5,0,"quadruplet","even",1.10985016823,0.598398923874,8,"e","029"
"experiment",2,825,0.669573208746,0.491601793051,3,0.1,6,0,"quadruplet","odd",1.07860183716,4.99902391434,6,"o","029"
"experiment",3,826,-0.894394059157,-0.94028348738,5,0.1,4,0,"quadruplet","even",0.774784803391,0.412466049194,4,"e","029"
